Time	Position_lat	Position_lng	Accelerometer_x	Accelerometer_y	Accelerometer_z	Gyroscope_x	Gyroscope_y	Gyroscope_z	Magnetometer_x	Magnetometer_y	Magnetometer_z
2017-08-17 18:14:00.908387	lat	lng	0.009765625	0.005615234375	0.990966796875	6.6106870229007635	3.8931297709923665	0.6717557251908397	0.0	0.0	0.0
2017-08-17 18:14:00.951035	lat	lng	0.004150390625	0.0078125	0.99169921875	2.4427480916030535	-0.04580152671755725	0.6717557251908397	0.0	0.0	0.0
2017-08-17 18:14:00.974940	lat	lng	0.005126953125	0.00634765625	0.998779296875	2.6717557251908395	-0.24427480916030533	0.9312977099236641	0.0	0.0	0.0
2017-08-17 18:14:00.998324	lat	lng	0.008544921875	0.0068359375	0.998779296875	2.427480916030534	-0.12213740458015267	1.1450381679389312	0.0	0.0	0.0
2017-08-17 18:14:01.021919	lat	lng	0.010009765625	0.005126953125	0.995849609375	2.7022900763358777	0.24427480916030533	0.8091603053435115	0.0	0.0	0.0
2017-08-17 18:14:01.045772	lat	lng	0.012939453125	0.00341796875	1.001708984375	2.687022900763359	-3.9083969465648853	0.732824427480916	0.0	0.0	0.0
2017-08-17 18:14:01.067751	lat	lng	0.00634765625	0.007080078125	0.994140625	2.6717557251908395	-0.2595419847328244	0.8396946564885496	0.0	0.0	0.0
2017-08-17 18:14:01.098925	lat	lng	0.005126953125	0.0048828125	0.995849609375	2.595419847328244	0.04580152671755725	0.7938931297709924	0.0	0.0	0.0
2017-08-17 18:14:01.124284	lat	lng	0.006103515625	0.00830078125	0.9970703125	2.8244274809160306	-0.16793893129770993	0.7786259541984732	0.0	0.0	0.0
2017-08-17 18:14:01.152194	lat	lng	0.008056640625	0.00244140625	0.998779296875	2.50381679389313	0.0	0.7022900763358778	0.0	0.0	0.0
2017-08-17 18:14:01.178183	lat	lng	0.00537109375	0.003173828125	0.99951171875	2.564885496183206	-0.07633587786259542	0.8091603053435115	0.0	0.0	0.0
2017-08-17 18:14:01.202863	lat	lng	0.00634765625	0.005859375	1.005126953125	2.6259541984732824	-0.2900763358778626	1.0534351145038168	0.0	0.0	0.0
2017-08-17 18:14:01.225791	lat	lng	0.008056640625	0.01025390625	1.007568359375	2.732824427480916	-0.24427480916030533	0.7022900763358778	0.0	0.0	0.0
2017-08-17 18:14:01.257793	lat	lng	0.00732421875	0.00439453125	0.994873046875	2.6717557251908395	-0.183206106870229	0.916030534351145	0.0	0.0	0.0
2017-08-17 18:14:01.281352	lat	lng	0.002685546875	0.0048828125	1.0302734375	2.595419847328244	-0.12213740458015267	0.8549618320610687	0.0	0.0	0.0
2017-08-17 18:14:01.305597	lat	lng	0.00537109375	0.00390625	1.003662109375	2.6259541984732824	-0.21374045801526717	0.916030534351145	0.0	0.0	0.0
2017-08-17 18:14:01.327555	lat	lng	0.001220703125	0.0048828125	0.9990234375	2.4732824427480917	-0.0916030534351145	1.0687022900763359	0.0	0.0	0.0
2017-08-17 18:14:01.358956	lat	lng	0.00439453125	0.00634765625	0.998779296875	2.732824427480916	-0.0916030534351145	0.7633587786259542	0.0	0.0	0.0
2017-08-17 18:14:01.382382	lat	lng	0.005859375	0.007080078125	0.99951171875	2.7480916030534353	-0.061068702290076333	1.0076335877862594	0.0	0.0	0.0
2017-08-17 18:14:01.406118	lat	lng	0.0048828125	0.0068359375	1.00830078125	2.519083969465649	-0.015267175572519083	0.8702290076335878	0.0	0.0	0.0
2017-08-17 18:14:01.427160	lat	lng	0.0087890625	0.01025390625	1.0029296875	2.6106870229007635	-0.0916030534351145	0.7175572519083969	0.0	0.0	0.0
2017-08-17 18:14:01.445980	lat	lng	0.00537109375	0.0068359375	1.003662109375	2.427480916030534	-0.32061068702290074	0.916030534351145	0.0	0.0	0.0
2017-08-17 18:14:01.464335	lat	lng	0.00146484375	0.006591796875	1.008544921875	2.519083969465649	-0.21374045801526717	0.732824427480916	0.0	0.0	0.0
2017-08-17 18:14:01.480871	lat	lng	0.008544921875	0.005859375	0.99560546875	2.6564885496183206	-0.0916030534351145	0.7938931297709924	0.0	0.0	0.0
2017-08-17 18:14:01.499073	lat	lng	0.0068359375	0.0107421875	1.002685546875	2.549618320610687	-0.16793893129770993	0.7022900763358778	0.0	0.0	0.0
2017-08-17 18:14:01.517834	lat	lng	0.006103515625	0.009521484375	1.002197265625	2.732824427480916	-0.24427480916030533	0.732824427480916	0.0	0.0	0.0
2017-08-17 18:14:01.536976	lat	lng	0.0048828125	0.0107421875	1.001953125	2.549618320610687	-0.183206106870229	0.8396946564885496	0.0	0.0	0.0
2017-08-17 18:14:01.555617	lat	lng	0.005126953125	0.00537109375	0.99951171875	2.7938931297709924	0.13740458015267176	0.8702290076335878	0.0	0.0	0.0
2017-08-17 18:14:01.576028	lat	lng	0.005859375	0.00732421875	0.9990234375	2.50381679389313	-0.183206106870229	0.7175572519083969	0.0	0.0	0.0
2017-08-17 18:14:01.592697	lat	lng	0.0048828125	0.004150390625	0.99365234375	2.4427480916030535	-0.2900763358778626	0.8702290076335878	0.0	0.0	0.0
2017-08-17 18:14:01.610454	lat	lng	0.007568359375	0.003173828125	1.007080078125	2.549618320610687	-0.10687022900763359	0.7175572519083969	0.0	0.0	0.0
2017-08-17 18:14:01.627701	lat	lng	0.0068359375	0.00634765625	1.005126953125	2.6717557251908395	-0.21374045801526717	0.9312977099236641	0.0	0.0	0.0
2017-08-17 18:14:01.645602	lat	lng	0.00390625	0.006103515625	1.00244140625	2.3969465648854964	-0.07633587786259542	0.7022900763358778	0.0	0.0	0.0
2017-08-17 18:14:01.662270	lat	lng	0.00927734375	0.0078125	1.0009765625	2.6412213740458017	-0.07633587786259542	0.7175572519083969	0.0	0.0	0.0
2017-08-17 18:14:01.679472	lat	lng	0.006591796875	0.0068359375	0.99609375	2.595419847328244	-0.0916030534351145	0.8549618320610687	0.0	0.0	0.0
2017-08-17 18:14:01.698682	lat	lng	0.0087890625	0.012939453125	1.00390625	2.6259541984732824	0.061068702290076333	0.6870229007633588	0.0	0.0	0.0
2017-08-17 18:14:01.715847	lat	lng	0.005126953125	0.00927734375	1.002685546875	2.5343511450381677	-0.24427480916030533	0.5801526717557252	0.0	0.0	0.0
2017-08-17 18:14:01.732959	lat	lng	0.00732421875	0.012451171875	1.003173828125	2.687022900763359	-0.15267175572519084	0.7938931297709924	0.0	0.0	0.0
2017-08-17 18:14:01.750063	lat	lng	0.00830078125	0.0107421875	1.001708984375	2.519083969465649	-0.0916030534351145	0.916030534351145	0.0	0.0	0.0
2017-08-17 18:14:01.768282	lat	lng	0.004150390625	0.006103515625	0.9970703125	2.6717557251908395	3.8931297709923665	0.8396946564885496	0.0	0.0	0.0
2017-08-17 18:14:01.785153	lat	lng	0.004638671875	0.00439453125	1.00732421875	2.427480916030534	-0.10687022900763359	0.6717557251908397	0.0	0.0	0.0
2017-08-17 18:14:01.802780	lat	lng	0.00634765625	-0.000732421875	0.99951171875	2.2595419847328246	0.061068702290076333	0.7633587786259542	0.0	0.0	0.0
2017-08-17 18:14:01.819185	lat	lng	0.0068359375	0.00439453125	1.00634765625	2.564885496183206	-0.0916030534351145	0.7633587786259542	0.0	0.0	0.0
2017-08-17 18:14:01.836106	lat	lng	0.006103515625	0.0078125	0.99462890625	2.5343511450381677	-0.183206106870229	0.7938931297709924	0.0	0.0	0.0
2017-08-17 18:14:01.852490	lat	lng	0.00439453125	0.004638671875	0.999267578125	2.6564885496183206	-0.1984732824427481	0.6717557251908397	0.0	0.0	0.0
2017-08-17 18:14:01.869382	lat	lng	0.0078125	0.004638671875	0.998291015625	2.687022900763359	-0.2595419847328244	0.7480916030534351	0.0	0.0	0.0
2017-08-17 18:14:01.886359	lat	lng	0.007568359375	0.00927734375	1.0	2.198473282442748	0.061068702290076333	0.8244274809160306	0.0	0.0	0.0
2017-08-17 18:14:01.904753	lat	lng	0.00634765625	0.008544921875	1.002197265625	2.4732824427480917	-0.0916030534351145	0.7786259541984732	0.0	0.0	0.0
2017-08-17 18:14:01.921428	lat	lng	0.00537109375	0.0068359375	1.0009765625	2.50381679389313	0.030534351145038167	0.9007633587786259	0.0	0.0	0.0
2017-08-17 18:14:01.941061	lat	lng	0.008056640625	0.007568359375	1.00439453125	2.687022900763359	0.030534351145038167	0.6259541984732825	0.0	0.0	0.0
2017-08-17 18:14:01.965196	lat	lng	0.00830078125	0.006103515625	1.003173828125	2.427480916030534	-0.030534351145038167	0.6564885496183206	0.0	0.0	0.0
2017-08-17 18:14:01.982362	lat	lng	0.005859375	0.00927734375	1.003662109375	2.4580152671755724	-0.061068702290076333	0.6412213740458015	0.0	0.0	0.0
2017-08-17 18:14:02.000734	lat	lng	0.00537109375	0.013427734375	0.99560546875	2.5343511450381677	-0.16793893129770993	0.6870229007633588	0.0	0.0	0.0
2017-08-17 18:14:02.017876	lat	lng	0.00390625	0.008544921875	0.999267578125	2.5801526717557253	-0.183206106870229	0.8396946564885496	0.0	0.0	0.0
2017-08-17 18:14:02.040210	lat	lng	0.00439453125	0.01025390625	0.968994140625	2.6106870229007635	-0.15267175572519084	0.8396946564885496	0.0	0.0	0.0
2017-08-17 18:14:02.056796	lat	lng	0.007568359375	0.009033203125	1.000244140625	2.4122137404580153	-0.2748091603053435	0.6870229007633588	0.0	0.0	0.0
2017-08-17 18:14:02.076299	lat	lng	0.0068359375	0.00537109375	0.978515625	2.519083969465649	0.030534351145038167	0.732824427480916	0.0	0.0	0.0
2017-08-17 18:14:02.093139	lat	lng	0.00634765625	0.008056640625	0.993896484375	2.427480916030534	-0.24427480916030533	0.6564885496183206	0.0	0.0	0.0
2017-08-17 18:14:02.118422	lat	lng	0.007568359375	0.005859375	0.99951171875	2.4427480916030535	-0.13740458015267176	0.7786259541984732	0.0	0.0	0.0
2017-08-17 18:14:02.142639	lat	lng	0.0068359375	0.0029296875	0.99560546875	2.687022900763359	-0.061068702290076333	0.8854961832061069	0.0	0.0	0.0
2017-08-17 18:14:02.164714	lat	lng	0.00634765625	0.005859375	0.997314453125	2.6717557251908395	-0.2900763358778626	0.7175572519083969	0.0	0.0	0.0
2017-08-17 18:14:02.187878	lat	lng	0.0048828125	0.00732421875	0.998046875	2.6717557251908395	0.2748091603053435	0.8854961832061069	0.0	0.0	0.0
2017-08-17 18:14:02.211919	lat	lng	0.007568359375	0.0068359375	0.996826171875	2.6412213740458017	-0.13740458015267176	0.732824427480916	0.0	0.0	0.0
2017-08-17 18:14:02.231572	lat	lng	0.00634765625	0.004638671875	1.003662109375	2.6564885496183206	-0.030534351145038167	0.732824427480916	0.0	0.0	0.0
2017-08-17 18:14:02.249992	lat	lng	0.006103515625	0.0078125	1.00048828125	2.4427480916030535	-0.04580152671755725	0.6717557251908397	0.0	0.0	0.0
2017-08-17 18:14:02.269249	lat	lng	0.00537109375	0.009033203125	0.999267578125	2.763358778625954	0.183206106870229	0.5954198473282443	0.0	0.0	0.0
2017-08-17 18:14:02.287601	lat	lng	0.005126953125	0.007568359375	1.001953125	2.854961832061069	-0.12213740458015267	0.8244274809160306	0.0	0.0	0.0
2017-08-17 18:14:02.307058	lat	lng	0.000732421875	0.00830078125	0.99658203125	2.549618320610687	0.030534351145038167	0.8396946564885496	0.0	0.0	0.0
2017-08-17 18:14:02.328095	lat	lng	0.00146484375	0.00830078125	1.003173828125	2.595419847328244	0.10687022900763359	0.6870229007633588	0.0	0.0	0.0
2017-08-17 18:14:02.345858	lat	lng	0.004150390625	0.006591796875	0.999267578125	2.4122137404580153	-0.1984732824427481	0.732824427480916	0.0	0.0	0.0
2017-08-17 18:14:02.365247	lat	lng	0.003173828125	0.007568359375	0.998779296875	2.3969465648854964	-0.04580152671755725	0.9007633587786259	0.0	0.0	0.0
2017-08-17 18:14:02.383652	lat	lng	0.006103515625	0.008056640625	1.002197265625	2.3969465648854964	3.8931297709923665	0.8854961832061069	0.0	0.0	0.0
2017-08-17 18:14:02.403527	lat	lng	0.0078125	0.01123046875	1.003173828125	2.427480916030534	-0.22900763358778625	0.6412213740458015	0.0	0.0	0.0
2017-08-17 18:14:02.420935	lat	lng	0.004150390625	0.005615234375	1.00439453125	2.427480916030534	0.0	0.9007633587786259	0.0	0.0	0.0
2017-08-17 18:14:02.437664	lat	lng	0.005615234375	0.006591796875	0.999267578125	2.427480916030534	-0.030534351145038167	0.8091603053435115	0.0	0.0	0.0
2017-08-17 18:14:02.454432	lat	lng	0.001953125	0.009033203125	1.00439453125	2.6412213740458017	-0.030534351145038167	0.6870229007633588	0.0	0.0	0.0
2017-08-17 18:14:02.471117	lat	lng	0.00830078125	0.004150390625	1.00634765625	2.4885496183206106	0.04580152671755725	0.7786259541984732	0.0	0.0	0.0
2017-08-17 18:14:02.488090	lat	lng	0.00390625	0.0087890625	1.00244140625	2.6106870229007635	-0.33587786259541985	0.8244274809160306	0.0	0.0	0.0
2017-08-17 18:14:02.505564	lat	lng	0.0087890625	0.00732421875	1.00146484375	2.5343511450381677	-0.07633587786259542	0.6717557251908397	0.0	0.0	0.0
2017-08-17 18:14:02.522731	lat	lng	0.00390625	0.010009765625	1.003662109375	2.7786259541984735	-0.13740458015267176	0.8091603053435115	0.0	0.0	0.0
2017-08-17 18:14:02.539709	lat	lng	0.00537109375	0.006591796875	1.001220703125	2.5343511450381677	-0.061068702290076333	0.7480916030534351	0.0	0.0	0.0
2017-08-17 18:14:02.556869	lat	lng	0.007080078125	0.00732421875	1.0029296875	2.4732824427480917	-0.07633587786259542	0.8854961832061069	0.0	0.0	0.0
2017-08-17 18:14:02.574276	lat	lng	0.004150390625	0.007080078125	0.97119140625	2.732824427480916	-0.2748091603053435	0.7175572519083969	0.0	0.0	0.0
2017-08-17 18:14:02.591265	lat	lng	0.00830078125	0.005126953125	1.005859375	2.5801526717557253	-0.16793893129770993	0.9007633587786259	0.0	0.0	0.0
2017-08-17 18:14:02.609620	lat	lng	0.00732421875	0.008544921875	1.00244140625	2.6259541984732824	0.015267175572519083	0.8549618320610687	0.0	0.0	0.0
2017-08-17 18:14:02.627541	lat	lng	0.005126953125	0.006591796875	1.001220703125	2.4885496183206106	0.04580152671755725	0.7786259541984732	0.0	0.0	0.0
2017-08-17 18:14:02.645763	lat	lng	0.008056640625	0.002685546875	1.00341796875	2.6412213740458017	-0.16793893129770993	0.6259541984732825	0.0	0.0	0.0
2017-08-17 18:14:02.663841	lat	lng	0.005859375	0.005859375	1.00341796875	2.549618320610687	-0.061068702290076333	0.9770992366412213	0.0	0.0	0.0
2017-08-17 18:14:02.681718	lat	lng	0.006103515625	0.00927734375	0.997314453125	2.564885496183206	-0.1984732824427481	0.6717557251908397	0.0	0.0	0.0
2017-08-17 18:14:02.699194	lat	lng	0.00537109375	0.010986328125	1.027099609375	2.7022900763358777	0.030534351145038167	0.5343511450381679	0.0	0.0	0.0
2017-08-17 18:14:02.716820	lat	lng	0.009033203125	0.0048828125	0.99609375	2.595419847328244	-0.07633587786259542	0.7938931297709924	0.0	0.0	0.0
2017-08-17 18:14:02.734427	lat	lng	0.00634765625	0.005859375	0.9970703125	2.8244274809160306	-0.15267175572519084	0.8091603053435115	0.0	0.0	0.0
2017-08-17 18:14:02.752097	lat	lng	0.00830078125	0.0087890625	0.998779296875	2.717557251908397	0.061068702290076333	0.6412213740458015	0.0	0.0	0.0
2017-08-17 18:14:02.769565	lat	lng	0.0068359375	0.0048828125	1.00341796875	2.519083969465649	-0.12213740458015267	0.6106870229007634	0.0	0.0	0.0
2017-08-17 18:14:02.787116	lat	lng	0.005615234375	0.006103515625	0.999755859375	2.2290076335877864	-0.3969465648854962	0.6412213740458015	0.0	0.0	0.0
2017-08-17 18:14:02.804728	lat	lng	0.009765625	0.00830078125	0.99609375	2.7786259541984735	-0.4580152671755725	0.7938931297709924	0.0	0.0	0.0
2017-08-17 18:14:02.822326	lat	lng	0.00048828125	0.00927734375	1.0048828125	2.7022900763358777	0.0	0.732824427480916	0.0	0.0	0.0
2017-08-17 18:14:02.839951	lat	lng	0.00927734375	0.004150390625	1.0009765625	2.6564885496183206	-0.15267175572519084	0.8091603053435115	0.0	0.0	0.0
2017-08-17 18:14:02.857433	lat	lng	0.005615234375	0.0029296875	1.002685546875	2.5343511450381677	-0.04580152671755725	0.7633587786259542	0.0	0.0	0.0
2017-08-17 18:14:02.875428	lat	lng	0.008056640625	0.007568359375	0.99462890625	2.732824427480916	-0.10687022900763359	0.6259541984732825	0.0	0.0	0.0
2017-08-17 18:14:02.892989	lat	lng	0.00634765625	0.0048828125	1.002685546875	2.763358778625954	-0.1984732824427481	0.7938931297709924	0.0	0.0	0.0
2017-08-17 18:14:02.911408	lat	lng	0.00341796875	0.006591796875	1.004150390625	2.687022900763359	-0.183206106870229	0.6870229007633588	0.0	0.0	0.0
2017-08-17 18:14:02.933638	lat	lng	0.004638671875	0.003662109375	1.001953125	2.595419847328244	-3.8931297709923665	0.7786259541984732	0.0	0.0	0.0
2017-08-17 18:14:02.957480	lat	lng	0.005615234375	0.0087890625	0.998779296875	2.381679389312977	-0.030534351145038167	0.7633587786259542	0.0	0.0	0.0
2017-08-17 18:14:02.981767	lat	lng	0.00537109375	0.00439453125	1.00439453125	2.6412213740458017	0.061068702290076333	1.0076335877862594	0.0	0.0	0.0
2017-08-17 18:14:03.006347	lat	lng	0.00537109375	0.007568359375	1.003173828125	2.6259541984732824	-0.366412213740458	0.7480916030534351	0.0	0.0	0.0
2017-08-17 18:14:03.025833	lat	lng	0.004150390625	0.006591796875	1.000244140625	2.351145038167939	0.07633587786259542	0.7786259541984732	0.0	0.0	0.0
2017-08-17 18:14:03.043554	lat	lng	0.0048828125	0.00927734375	0.99267578125	2.5801526717557253	-0.13740458015267176	0.7633587786259542	0.0	0.0	0.0
2017-08-17 18:14:03.060474	lat	lng	0.001953125	0.008544921875	1.000732421875	2.595419847328244	-0.21374045801526717	0.8091603053435115	0.0	0.0	0.0
2017-08-17 18:14:03.078149	lat	lng	0.005126953125	0.004638671875	0.9990234375	2.50381679389313	-0.15267175572519084	0.8091603053435115	0.0	0.0	0.0
2017-08-17 18:14:03.095413	lat	lng	0.005126953125	0.007080078125	1.0	2.8091603053435112	-0.061068702290076333	0.8091603053435115	0.0	0.0	0.0
2017-08-17 18:14:03.122422	lat	lng	0.002197265625	0.012451171875	0.998046875	2.687022900763359	0.0	0.8702290076335878	0.0	0.0	0.0
2017-08-17 18:14:03.140025	lat	lng	0.005859375	0.012451171875	1.010009765625	2.6717557251908395	-0.24427480916030533	1.0076335877862594	0.0	0.0	0.0
2017-08-17 18:14:03.157890	lat	lng	0.005615234375	0.011962890625	0.993896484375	2.717557251908397	-0.21374045801526717	0.6717557251908397	0.0	0.0	0.0
2017-08-17 18:14:03.175738	lat	lng	0.005126953125	0.0068359375	1.00537109375	2.5801526717557253	-0.2900763358778626	0.6870229007633588	0.0	0.0	0.0
2017-08-17 18:14:03.194436	lat	lng	0.0078125	0.006103515625	0.998291015625	2.5801526717557253	-0.21374045801526717	0.7633587786259542	0.0	0.0	0.0
2017-08-17 18:14:03.211384	lat	lng	0.008544921875	0.005126953125	0.99560546875	2.595419847328244	-0.2900763358778626	0.732824427480916	0.0	0.0	0.0
2017-08-17 18:14:03.227675	lat	lng	0.0048828125	0.00537109375	1.02880859375	2.687022900763359	-0.183206106870229	0.8549618320610687	0.0	0.0	0.0
2017-08-17 18:14:03.244392	lat	lng	0.005859375	0.00390625	0.99609375	2.6564885496183206	-0.183206106870229	0.9007633587786259	0.0	0.0	0.0
2017-08-17 18:14:03.261095	lat	lng	0.0087890625	0.01123046875	0.9970703125	2.7022900763358777	0.2900763358778626	0.5648854961832062	0.0	0.0	0.0
2017-08-17 18:14:03.283192	lat	lng	0.00634765625	0.009521484375	0.999267578125	2.6412213740458017	-0.16793893129770993	0.7786259541984732	0.0	0.0	0.0
2017-08-17 18:14:03.301078	lat	lng	0.010986328125	0.00439453125	0.999755859375	2.4580152671755724	-0.13740458015267176	0.8549618320610687	0.0	0.0	0.0
2017-08-17 18:14:03.318759	lat	lng	0.008544921875	0.0068359375	1.001220703125	2.6564885496183206	-0.22900763358778625	0.8549618320610687	0.0	0.0	0.0
2017-08-17 18:14:03.335192	lat	lng	0.010009765625	0.010009765625	1.00146484375	2.3206106870229006	-0.061068702290076333	0.8854961832061069	0.0	0.0	0.0
2017-08-17 18:14:03.353582	lat	lng	0.006591796875	0.007568359375	1.0	2.732824427480916	-0.183206106870229	0.7938931297709924	0.0	0.0	0.0
2017-08-17 18:14:03.371021	lat	lng	0.00439453125	0.0087890625	1.001708984375	2.6106870229007635	-0.13740458015267176	0.8396946564885496	0.0	0.0	0.0
2017-08-17 18:14:03.390446	lat	lng	0.006591796875	0.006591796875	1.007080078125	2.6564885496183206	-0.015267175572519083	0.8396946564885496	0.0	0.0	0.0
2017-08-17 18:14:03.408991	lat	lng	0.0048828125	0.00537109375	1.001953125	2.687022900763359	-0.030534351145038167	0.7175572519083969	0.0	0.0	0.0
2017-08-17 18:14:03.427865	lat	lng	0.006103515625	0.010009765625	1.00537109375	2.4732824427480917	-0.24427480916030533	0.8091603053435115	0.0	0.0	0.0
2017-08-17 18:14:03.444911	lat	lng	0.001220703125	0.0048828125	0.993896484375	2.6564885496183206	-0.1984732824427481	0.8702290076335878	0.0	0.0	0.0
2017-08-17 18:14:03.461887	lat	lng	0.00732421875	0.005859375	1.009521484375	2.732824427480916	-0.15267175572519084	0.8854961832061069	0.0	0.0	0.0
2017-08-17 18:14:03.478340	lat	lng	0.0029296875	0.0087890625	1.0087890625	2.519083969465649	-0.030534351145038167	0.8091603053435115	0.0	0.0	0.0
2017-08-17 18:14:03.497308	lat	lng	0.01171875	0.00927734375	1.00048828125	2.7022900763358777	-0.3969465648854962	0.7480916030534351	0.0	0.0	0.0
2017-08-17 18:14:03.515115	lat	lng	0.00439453125	0.010009765625	1.0009765625	2.5343511450381677	-0.12213740458015267	0.7022900763358778	0.0	0.0	0.0
2017-08-17 18:14:03.534054	lat	lng	0.006103515625	0.006591796875	1.006103515625	2.50381679389313	-0.183206106870229	0.7480916030534351	0.0	0.0	0.0
2017-08-17 18:14:03.551947	lat	lng	0.00830078125	0.0078125	0.99609375	2.6259541984732824	-0.21374045801526717	1.099236641221374	0.0	0.0	0.0
2017-08-17 18:14:03.570425	lat	lng	0.007080078125	0.010498046875	0.970703125	2.6717557251908395	-0.13740458015267176	0.7175572519083969	0.0	0.0	0.0
2017-08-17 18:14:03.588429	lat	lng	0.00732421875	0.01025390625	0.969482421875	2.6717557251908395	-0.22900763358778625	0.6870229007633588	0.0	0.0	0.0
2017-08-17 18:14:03.607168	lat	lng	0.0078125	0.00634765625	1.002685546875	2.5801526717557253	0.0	0.7938931297709924	0.0	0.0	0.0
2017-08-17 18:14:03.625337	lat	lng	0.003662109375	0.009521484375	0.99658203125	2.5343511450381677	-0.21374045801526717	0.7786259541984732	0.0	0.0	0.0
2017-08-17 18:14:03.643011	lat	lng	0.00634765625	0.00341796875	0.998046875	2.7786259541984735	-0.2748091603053435	0.7480916030534351	0.0	0.0	0.0
2017-08-17 18:14:03.661232	lat	lng	0.00732421875	0.0048828125	1.00439453125	2.6412213740458017	-0.183206106870229	0.8549618320610687	0.0	0.0	0.0
2017-08-17 18:14:03.678918	lat	lng	0.00244140625	0.013916015625	1.001220703125	2.687022900763359	-0.13740458015267176	0.7480916030534351	0.0	0.0	0.0
2017-08-17 18:14:03.702726	lat	lng	0.006591796875	0.008544921875	0.99609375	2.7022900763358777	-0.2748091603053435	0.7175572519083969	0.0	0.0	0.0
2017-08-17 18:14:03.729242	lat	lng	0.00732421875	0.011962890625	1.000244140625	2.564885496183206	-0.21374045801526717	0.9312977099236641	0.0	0.0	0.0
2017-08-17 18:14:03.753194	lat	lng	0.005615234375	0.013427734375	0.993408203125	2.732824427480916	-0.030534351145038167	0.9312977099236641	0.0	0.0	0.0
2017-08-17 18:14:03.775349	lat	lng	0.00537109375	0.0078125	1.001953125	2.6717557251908395	3.8625954198473282	0.7633587786259542	0.0	0.0	0.0
2017-08-17 18:14:03.796628	lat	lng	0.001708984375	0.00439453125	0.998779296875	2.4885496183206106	0.061068702290076333	0.732824427480916	0.0	0.0	0.0
2017-08-17 18:14:03.819348	lat	lng	0.0029296875	0.00341796875	1.0029296875	2.8091603053435112	0.12213740458015267	0.7633587786259542	0.0	0.0	0.0
2017-08-17 18:14:03.836191	lat	lng	0.004638671875	0.0078125	1.002685546875	2.4885496183206106	0.061068702290076333	0.916030534351145	0.0	0.0	0.0
2017-08-17 18:14:03.852983	lat	lng	0.009765625	0.00830078125	1.006103515625	2.564885496183206	-0.10687022900763359	0.8854961832061069	0.0	0.0	0.0
2017-08-17 18:14:03.869877	lat	lng	0.00634765625	0.009033203125	1.00830078125	2.3969465648854964	0.10687022900763359	0.8396946564885496	0.0	0.0	0.0
2017-08-17 18:14:03.886618	lat	lng	0.006103515625	0.009033203125	1.0078125	2.564885496183206	-0.12213740458015267	0.6412213740458015	0.0	0.0	0.0
2017-08-17 18:14:03.907388	lat	lng	0.00732421875	0.010009765625	1.007568359375	2.564885496183206	-0.10687022900763359	0.8854961832061069	0.0	0.0	0.0
2017-08-17 18:14:03.927028	lat	lng	0.00830078125	0.00927734375	0.9990234375	2.4122137404580153	-0.32061068702290074	0.8091603053435115	0.0	0.0	0.0
2017-08-17 18:14:03.946476	lat	lng	0.00927734375	0.004150390625	0.996826171875	2.595419847328244	-0.33587786259541985	0.8854961832061069	0.0	0.0	0.0
2017-08-17 18:14:03.967022	lat	lng	0.004638671875	0.00537109375	1.000244140625	2.5801526717557253	-0.4732824427480916	0.8702290076335878	0.0	0.0	0.0
2017-08-17 18:14:03.986888	lat	lng	0.0087890625	0.009521484375	1.000732421875	2.717557251908397	0.030534351145038167	0.8702290076335878	0.0	0.0	0.0
2017-08-17 18:14:04.007006	lat	lng	0.009765625	0.0068359375	0.997802734375	2.549618320610687	-0.10687022900763359	0.7633587786259542	0.0	0.0	0.0
2017-08-17 18:14:04.028611	lat	lng	0.002685546875	0.005126953125	0.9970703125	2.6717557251908395	-0.22900763358778625	1.0381679389312977	0.0	0.0	0.0
2017-08-17 18:14:04.047416	lat	lng	0.00390625	0.00341796875	0.998291015625	2.351145038167939	0.030534351145038167	0.8396946564885496	0.0	0.0	0.0
2017-08-17 18:14:04.065951	lat	lng	0.005859375	0.004150390625	0.997802734375	2.7786259541984735	-0.0916030534351145	0.9465648854961832	0.0	0.0	0.0
2017-08-17 18:14:04.083737	lat	lng	0.00390625	0.009033203125	1.003662109375	2.595419847328244	-0.0916030534351145	0.7786259541984732	0.0	0.0	0.0
2017-08-17 18:14:04.102530	lat	lng	0.007080078125	0.004150390625	1.002685546875	2.4885496183206106	-0.16793893129770993	0.9465648854961832	0.0	0.0	0.0
2017-08-17 18:14:04.120495	lat	lng	0.00439453125	0.00927734375	1.004638671875	2.4427480916030535	0.15267175572519084	0.7022900763358778	0.0	0.0	0.0
2017-08-17 18:14:04.139364	lat	lng	0.0087890625	0.009033203125	1.004638671875	2.4122137404580153	-0.24427480916030533	0.8702290076335878	0.0	0.0	0.0
2017-08-17 18:14:04.157230	lat	lng	0.00732421875	0.006591796875	0.9951171875	2.6717557251908395	-0.3053435114503817	0.5648854961832062	0.0	0.0	0.0
2017-08-17 18:14:04.176478	lat	lng	0.00634765625	0.005859375	1.005126953125	2.4732824427480917	-0.183206106870229	0.8091603053435115	0.0	0.0	0.0
2017-08-17 18:14:04.198706	lat	lng	0.006103515625	0.00439453125	1.002197265625	2.6412213740458017	-0.0916030534351145	0.7175572519083969	0.0	0.0	0.0
2017-08-17 18:14:04.215765	lat	lng	0.00537109375	0.003662109375	1.004150390625	2.6412213740458017	0.061068702290076333	0.7022900763358778	0.0	0.0	0.0
2017-08-17 18:14:04.232265	lat	lng	0.00537109375	0.00927734375	1.0	2.4427480916030535	0.030534351145038167	0.7480916030534351	0.0	0.0	0.0
2017-08-17 18:14:04.252536	lat	lng	0.005615234375	0.012939453125	0.999755859375	2.5343511450381677	-0.2595419847328244	0.9770992366412213	0.0	0.0	0.0
2017-08-17 18:14:04.271510	lat	lng	0.00439453125	0.00927734375	1.005615234375	2.717557251908397	-0.21374045801526717	1.0534351145038168	0.0	0.0	0.0
2017-08-17 18:14:04.290885	lat	lng	0.010986328125	0.0078125	1.002685546875	2.6717557251908395	-0.16793893129770993	0.8702290076335878	0.0	0.0	0.0
2017-08-17 18:14:04.310168	lat	lng	0.005859375	0.006591796875	0.99951171875	2.5801526717557253	-0.061068702290076333	0.6412213740458015	0.0	0.0	0.0
2017-08-17 18:14:04.329078	lat	lng	0.000732421875	0.002685546875	0.999267578125	2.6564885496183206	-0.13740458015267176	0.732824427480916	0.0	0.0	0.0
2017-08-17 18:14:04.352497	lat	lng	0.00634765625	0.003662109375	1.0029296875	2.564885496183206	-0.2748091603053435	0.8396946564885496	0.0	0.0	0.0
2017-08-17 18:14:04.369320	lat	lng	0.006591796875	0.00732421875	1.004638671875	2.6564885496183206	-0.13740458015267176	0.6870229007633588	0.0	0.0	0.0
2017-08-17 18:14:04.390129	lat	lng	0.004150390625	0.0078125	0.99755859375	2.7022900763358777	0.07633587786259542	0.6106870229007634	0.0	0.0	0.0
2017-08-17 18:14:04.407147	lat	lng	0.00634765625	0.006591796875	1.0029296875	2.687022900763359	3.8931297709923665	0.8549618320610687	0.0	0.0	0.0
2017-08-17 18:14:04.426465	lat	lng	0.008544921875	0.007080078125	0.99853515625	2.7022900763358777	-3.9083969465648853	0.732824427480916	0.0	0.0	0.0
2017-08-17 18:14:04.443690	lat	lng	0.005859375	0.009033203125	1.00244140625	2.732824427480916	0.0	0.5190839694656488	0.0	0.0	0.0
2017-08-17 18:14:04.461711	lat	lng	0.009521484375	0.009765625	1.000732421875	2.564885496183206	-0.07633587786259542	0.7938931297709924	0.0	0.0	0.0
2017-08-17 18:14:04.480220	lat	lng	0.005615234375	0.009521484375	1.001220703125	2.6412213740458017	-0.22900763358778625	0.7175572519083969	0.0	0.0	0.0
2017-08-17 18:14:04.498727	lat	lng	0.006103515625	0.0087890625	0.999755859375	2.564885496183206	-0.183206106870229	0.6106870229007634	0.0	0.0	0.0
2017-08-17 18:14:04.519187	lat	lng	0.00537109375	0.00732421875	0.997314453125	2.6717557251908395	-0.48854961832061067	0.5343511450381679	0.0	0.0	0.0
2017-08-17 18:14:04.544711	lat	lng	0.006591796875	0.0078125	1.00439453125	2.7022900763358777	-0.21374045801526717	0.8702290076335878	0.0	0.0	0.0
2017-08-17 18:14:04.574860	lat	lng	0.009521484375	0.00927734375	1.001708984375	2.5343511450381677	-0.10687022900763359	0.7938931297709924	0.0	0.0	0.0
2017-08-17 18:14:04.603163	lat	lng	0.008056640625	0.008544921875	0.997802734375	2.50381679389313	-0.0916030534351145	0.8702290076335878	0.0	0.0	0.0
2017-08-17 18:14:04.627163	lat	lng	0.007568359375	0.002197265625	0.996337890625	2.6564885496183206	-0.0916030534351145	0.732824427480916	0.0	0.0	0.0
2017-08-17 18:14:04.645777	lat	lng	0.00537109375	0.002197265625	1.029052734375	2.5343511450381677	-0.15267175572519084	0.6717557251908397	0.0	0.0	0.0
2017-08-17 18:14:04.667824	lat	lng	0.00830078125	0.0029296875	1.00341796875	2.885496183206107	-3.9083969465648853	0.9312977099236641	0.0	0.0	0.0
2017-08-17 18:14:04.687226	lat	lng	0.00634765625	0.006591796875	0.997802734375	2.6717557251908395	-3.9083969465648853	0.916030534351145	0.0	0.0	0.0
2017-08-17 18:14:04.708322	lat	lng	0.005615234375	0.006591796875	0.997314453125	2.6106870229007635	-0.16793893129770993	0.5801526717557252	0.0	0.0	0.0
2017-08-17 18:14:04.727762	lat	lng	0.00634765625	0.01318359375	1.00244140625	2.549618320610687	-0.10687022900763359	0.7786259541984732	0.0	0.0	0.0
2017-08-17 18:14:04.747222	lat	lng	0.004638671875	0.006103515625	1.002197265625	2.2900763358778624	0.15267175572519084	0.7175572519083969	0.0	0.0	0.0
2017-08-17 18:14:04.765055	lat	lng	0.001220703125	0.005615234375	0.99658203125	2.5343511450381677	-0.061068702290076333	0.7022900763358778	0.0	0.0	0.0
2017-08-17 18:14:04.783096	lat	lng	0.005859375	0.008056640625	0.995849609375	2.8244274809160306	-0.04580152671755725	0.916030534351145	0.0	0.0	0.0
2017-08-17 18:14:04.804478	lat	lng	0.003173828125	0.005126953125	0.9951171875	2.732824427480916	-0.10687022900763359	0.5190839694656488	0.0	0.0	0.0
2017-08-17 18:14:04.821395	lat	lng	0.004150390625	0.0087890625	0.9990234375	2.6564885496183206	-0.0916030534351145	0.7633587786259542	0.0	0.0	0.0
2017-08-17 18:14:04.838789	lat	lng	0.005126953125	0.007568359375	1.006103515625	2.7022900763358777	-0.2595419847328244	0.8244274809160306	0.0	0.0	0.0
2017-08-17 18:14:04.855857	lat	lng	0.00439453125	0.0087890625	1.007568359375	2.7480916030534353	-0.1984732824427481	0.8091603053435115	0.0	0.0	0.0
2017-08-17 18:14:04.873309	lat	lng	0.005859375	0.016357421875	0.999755859375	2.427480916030534	-0.0916030534351145	0.8244274809160306	0.0	0.0	0.0
2017-08-17 18:14:04.890517	lat	lng	0.0078125	0.00927734375	1.00341796875	2.732824427480916	-0.12213740458015267	0.8244274809160306	0.0	0.0	0.0
2017-08-17 18:14:04.908430	lat	lng	0.010498046875	0.01220703125	1.00732421875	2.6564885496183206	-0.0916030534351145	0.9312977099236641	0.0	0.0	0.0
2017-08-17 18:14:04.927172	lat	lng	0.006103515625	0.012939453125	1.003662109375	2.6106870229007635	-0.4732824427480916	0.916030534351145	0.0	0.0	0.0
2017-08-17 18:14:04.946477	lat	lng	0.00390625	0.00732421875	0.998291015625	2.7480916030534353	-0.2900763358778626	0.8091603053435115	0.0	0.0	0.0
2017-08-17 18:14:04.966109	lat	lng	0.002685546875	0.006591796875	0.996337890625	2.549618320610687	-0.15267175572519084	0.8244274809160306	0.0	0.0	0.0
2017-08-17 18:14:04.986271	lat	lng	0.004150390625	0.00537109375	1.001708984375	2.885496183206107	-0.366412213740458	0.4732824427480916	0.0	0.0	0.0
2017-08-17 18:14:05.008226	lat	lng	0.001708984375	0.006591796875	1.000244140625	2.6106870229007635	-0.24427480916030533	0.7633587786259542	0.0	0.0	0.0
2017-08-17 18:14:05.031244	lat	lng	0.005126953125	0.006591796875	0.999755859375	2.427480916030534	-0.12213740458015267	0.7633587786259542	0.0	0.0	0.0
2017-08-17 18:14:05.049017	lat	lng	0.0068359375	0.0078125	1.003173828125	2.5801526717557253	-0.24427480916030533	0.6412213740458015	0.0	0.0	0.0
2017-08-17 18:14:05.065697	lat	lng	0.009765625	0.008056640625	0.998046875	2.7480916030534353	0.0916030534351145	0.7480916030534351	0.0	0.0	0.0
2017-08-17 18:14:05.082873	lat	lng	0.001708984375	0.005126953125	0.99658203125	2.763358778625954	-0.2748091603053435	0.7480916030534351	0.0	0.0	0.0
2017-08-17 18:14:05.099705	lat	lng	0.005859375	0.009765625	1.0087890625	2.4122137404580153	-0.2900763358778626	0.7938931297709924	0.0	0.0	0.0
2017-08-17 18:14:05.116298	lat	lng	0.0048828125	0.005615234375	1.003173828125	2.763358778625954	0.13740458015267176	0.7022900763358778	0.0	0.0	0.0
2017-08-17 18:14:05.132950	lat	lng	0.001708984375	0.01025390625	0.998046875	2.50381679389313	0.04580152671755725	0.9007633587786259	0.0	0.0	0.0
2017-08-17 18:14:05.149263	lat	lng	0.006591796875	0.00830078125	1.00146484375	2.6564885496183206	-0.15267175572519084	0.8549618320610687	0.0	0.0	0.0
2017-08-17 18:14:05.165696	lat	lng	0.004150390625	0.006591796875	0.998291015625	2.6106870229007635	-0.10687022900763359	0.8244274809160306	0.0	0.0	0.0
2017-08-17 18:14:05.182073	lat	lng	0.00390625	0.005615234375	1.005615234375	2.6259541984732824	-0.16793893129770993	0.7786259541984732	0.0	0.0	0.0
2017-08-17 18:14:05.198415	lat	lng	0.00634765625	0.006591796875	0.997802734375	2.6717557251908395	-0.1984732824427481	0.6106870229007634	0.0	0.0	0.0
2017-08-17 18:14:05.215098	lat	lng	0.00732421875	0.005615234375	1.003662109375	2.50381679389313	-0.3053435114503817	0.732824427480916	0.0	0.0	0.0
2017-08-17 18:14:05.231456	lat	lng	0.005859375	0.009033203125	1.004150390625	2.7786259541984735	-0.16793893129770993	0.549618320610687	0.0	0.0	0.0
2017-08-17 18:14:05.247806	lat	lng	0.004638671875	0.004150390625	1.00390625	2.5343511450381677	-0.12213740458015267	0.7786259541984732	0.0	0.0	0.0
2017-08-17 18:14:05.264213	lat	lng	0.0078125	0.001708984375	0.998779296875	2.763358778625954	0.030534351145038167	0.6259541984732825	0.0	0.0	0.0
2017-08-17 18:14:05.280532	lat	lng	0.0048828125	0.005615234375	1.003173828125	2.4732824427480917	-0.12213740458015267	0.8549618320610687	0.0	0.0	0.0
2017-08-17 18:14:05.296872	lat	lng	0.00830078125	0.009521484375	1.0048828125	2.763358778625954	0.015267175572519083	0.9007633587786259	0.0	0.0	0.0
2017-08-17 18:14:05.313544	lat	lng	0.004638671875	0.009765625	1.005859375	2.7938931297709924	-0.0916030534351145	0.732824427480916	0.0	0.0	0.0
2017-08-17 18:14:05.330232	lat	lng	0.0068359375	0.012939453125	1.0	2.7480916030534353	0.030534351145038167	0.6412213740458015	0.0	0.0	0.0
2017-08-17 18:14:05.351056	lat	lng	0.011474609375	0.017578125	0.999755859375	2.549618320610687	-0.183206106870229	0.9618320610687023	0.0	0.0	0.0
2017-08-17 18:14:05.372485	lat	lng	0.007080078125	0.0087890625	1.02978515625	2.4732824427480917	0.030534351145038167	0.916030534351145	0.0	0.0	0.0
2017-08-17 18:14:05.393232	lat	lng	0.006591796875	0.00634765625	1.004638671875	2.519083969465649	-0.13740458015267176	0.9770992366412213	0.0	0.0	0.0
2017-08-17 18:14:05.414259	lat	lng	0.003662109375	0.00244140625	0.99853515625	2.366412213740458	-0.015267175572519083	0.8396946564885496	0.0	0.0	0.0
2017-08-17 18:14:05.435309	lat	lng	0.002685546875	0.00146484375	1.03076171875	2.6564885496183206	-0.183206106870229	0.732824427480916	0.0	0.0	0.0
2017-08-17 18:14:05.456236	lat	lng	0.00439453125	0.001953125	0.998779296875	2.6259541984732824	0.07633587786259542	0.6717557251908397	0.0	0.0	0.0
2017-08-17 18:14:05.477173	lat	lng	0.00244140625	0.00439453125	1.0009765625	2.6564885496183206	0.015267175572519083	0.5343511450381679	0.0	0.0	0.0
2017-08-17 18:14:05.498077	lat	lng	0.005615234375	-0.00048828125	1.00244140625	2.4122137404580153	-0.04580152671755725	0.6106870229007634	0.0	0.0	0.0
2017-08-17 18:14:05.519387	lat	lng	0.008056640625	0.0068359375	0.99560546875	2.6717557251908395	-0.0916030534351145	0.4732824427480916	0.0	0.0	0.0
2017-08-17 18:14:05.540741	lat	lng	0.0078125	0.0087890625	1.005859375	2.5801526717557253	-0.2748091603053435	0.5954198473282443	0.0	0.0	0.0
2017-08-17 18:14:05.561989	lat	lng	0.003173828125	0.0146484375	1.007568359375	2.4732824427480917	-0.16793893129770993	0.7786259541984732	0.0	0.0	0.0
2017-08-17 18:14:05.583263	lat	lng	0.005859375	0.012451171875	1.00341796875	2.6412213740458017	-0.12213740458015267	1.0381679389312977	0.0	0.0	0.0
2017-08-17 18:14:05.604757	lat	lng	0.005615234375	0.0087890625	1.00244140625	2.6259541984732824	-0.2748091603053435	0.7786259541984732	0.0	0.0	0.0
2017-08-17 18:14:05.626231	lat	lng	0.008056640625	0.00341796875	0.974609375	2.4885496183206106	-0.24427480916030533	0.7175572519083969	0.0	0.0	0.0
2017-08-17 18:14:05.647756	lat	lng	0.00732421875	0.00439453125	0.999755859375	2.4732824427480917	-0.15267175572519084	0.7938931297709924	0.0	0.0	0.0
2017-08-17 18:14:05.669091	lat	lng	0.006103515625	0.004638671875	1.0	2.6259541984732824	-0.183206106870229	0.7175572519083969	0.0	0.0	0.0
2017-08-17 18:14:05.690347	lat	lng	0.007080078125	0.01171875	0.99853515625	2.5801526717557253	-3.9083969465648853	0.5954198473282443	0.0	0.0	0.0
2017-08-17 18:14:05.712013	lat	lng	0.004638671875	0.011474609375	1.003173828125	2.381679389312977	-0.2748091603053435	0.7786259541984732	0.0	0.0	0.0
2017-08-17 18:14:05.735115	lat	lng	0.00341796875	0.009765625	1.00390625	2.6259541984732824	-0.3816793893129771	0.8091603053435115	0.0	0.0	0.0
2017-08-17 18:14:05.763183	lat	lng	0.00830078125	-0.001220703125	1.00732421875	2.351145038167939	0.0	0.8244274809160306	0.0	0.0	0.0
2017-08-17 18:14:05.785617	lat	lng	0.001708984375	0.005615234375	0.991943359375	2.4580152671755724	-0.015267175572519083	0.732824427480916	0.0	0.0	0.0
2017-08-17 18:14:05.816166	lat	lng	0.01025390625	0.007568359375	0.99951171875	2.595419847328244	-3.9083969465648853	0.7786259541984732	0.0	0.0	0.0
2017-08-17 18:14:05.841366	lat	lng	0.008056640625	0.009765625	0.9951171875	2.6717557251908395	-0.12213740458015267	0.732824427480916	0.0	0.0	0.0
2017-08-17 18:14:05.858135	lat	lng	0.004638671875	0.0068359375	1.0029296875	2.381679389312977	-0.030534351145038167	0.549618320610687	0.0	0.0	0.0
2017-08-17 18:14:05.875298	lat	lng	0.00634765625	0.00732421875	0.99658203125	2.564885496183206	-0.183206106870229	0.7633587786259542	0.0	0.0	0.0
2017-08-17 18:14:05.891964	lat	lng	0.006591796875	0.010009765625	1.029541015625	2.8396946564885495	-0.07633587786259542	0.8702290076335878	0.0	0.0	0.0
2017-08-17 18:14:05.909722	lat	lng	0.0078125	0.007568359375	1.003173828125	2.8244274809160306	3.8931297709923665	1.0381679389312977	0.0	0.0	0.0
2017-08-17 18:14:05.926310	lat	lng	0.0048828125	0.009765625	1.0107421875	2.549618320610687	3.8931297709923665	0.9312977099236641	0.0	0.0	0.0
2017-08-17 18:14:05.944905	lat	lng	0.0048828125	0.0087890625	0.99658203125	2.6106870229007635	-0.2748091603053435	0.7480916030534351	0.0	0.0	0.0
2017-08-17 18:14:05.966731	lat	lng	0.005126953125	0.00634765625	0.999267578125	2.5801526717557253	-0.3816793893129771	0.9923664122137404	0.0	0.0	0.0
2017-08-17 18:14:05.985383	lat	lng	0.003173828125	0.00634765625	1.002685546875	2.7480916030534353	-0.061068702290076333	0.916030534351145	0.0	0.0	0.0
2017-08-17 18:14:06.019982	lat	lng	0.010498046875	0.005126953125	0.99365234375	2.4885496183206106	0.1984732824427481	0.916030534351145	0.0	0.0	0.0
2017-08-17 18:14:06.046605	lat	lng	0.0078125	0.005615234375	1.00341796875	2.549618320610687	0.15267175572519084	0.6259541984732825	0.0	0.0	0.0
2017-08-17 18:14:06.063649	lat	lng	0.003173828125	0.006103515625	0.99462890625	2.6564885496183206	-0.21374045801526717	0.5648854961832062	0.0	0.0	0.0
2017-08-17 18:14:06.084483	lat	lng	0.005126953125	0.0078125	1.002685546875	2.564885496183206	0.061068702290076333	0.5648854961832062	0.0	0.0	0.0
2017-08-17 18:14:06.101651	lat	lng	0.00390625	0.00927734375	1.003173828125	2.8702290076335877	-0.12213740458015267	0.7480916030534351	0.0	0.0	0.0
2017-08-17 18:14:06.122758	lat	lng	0.006103515625	0.005126953125	0.999755859375	2.717557251908397	0.030534351145038167	0.8396946564885496	0.0	0.0	0.0
2017-08-17 18:14:06.146756	lat	lng	0.007080078125	0.0078125	0.996337890625	2.6564885496183206	0.10687022900763359	0.732824427480916	0.0	0.0	0.0
2017-08-17 18:14:06.165455	lat	lng	0.00732421875	0.005859375	1.001708984375	2.4885496183206106	-0.22900763358778625	0.7175572519083969	0.0	0.0	0.0
2017-08-17 18:14:06.185824	lat	lng	0.00927734375	0.009765625	1.0048828125	2.6259541984732824	-0.3969465648854962	0.8091603053435115	0.0	0.0	0.0
2017-08-17 18:14:06.202327	lat	lng	0.006591796875	0.008056640625	1.003662109375	2.687022900763359	0.07633587786259542	0.7175572519083969	0.0	0.0	0.0
2017-08-17 18:14:06.219160	lat	lng	0.0068359375	0.007568359375	1.009033203125	2.50381679389313	-0.21374045801526717	0.8854961832061069	0.0	0.0	0.0
2017-08-17 18:14:06.235704	lat	lng	0.005126953125	0.0126953125	0.996826171875	2.687022900763359	-0.2900763358778626	0.7175572519083969	0.0	0.0	0.0
2017-08-17 18:14:06.252541	lat	lng	0.00634765625	0.010009765625	0.9970703125	2.549618320610687	-0.183206106870229	0.6564885496183206	0.0	0.0	0.0
2017-08-17 18:14:06.269235	lat	lng	0.003173828125	0.005859375	0.9970703125	2.427480916030534	0.030534351145038167	0.7786259541984732	0.0	0.0	0.0
2017-08-17 18:14:06.286173	lat	lng	0.003662109375	0.007568359375	1.003173828125	2.595419847328244	-0.2595419847328244	0.6412213740458015	0.0	0.0	0.0
2017-08-17 18:14:06.305442	lat	lng	0.0048828125	0.006103515625	1.00244140625	2.6259541984732824	-0.07633587786259542	0.8549618320610687	0.0	0.0	0.0
2017-08-17 18:14:06.327919	lat	lng	0.00634765625	0.002685546875	0.99853515625	2.854961832061069	-3.9083969465648853	0.6564885496183206	0.0	0.0	0.0
2017-08-17 18:14:06.345552	lat	lng	0.007080078125	0.004150390625	1.001953125	2.6259541984732824	-0.22900763358778625	0.5648854961832062	0.0	0.0	0.0
2017-08-17 18:14:06.364365	lat	lng	0.007568359375	0.010009765625	0.996337890625	2.4580152671755724	-0.15267175572519084	0.732824427480916	0.0	0.0	0.0
2017-08-17 18:14:06.382315	lat	lng	0.0048828125	0.006591796875	1.007080078125	2.4122137404580153	-0.015267175572519083	0.8702290076335878	0.0	0.0	0.0
2017-08-17 18:14:06.401707	lat	lng	0.007568359375	0.00634765625	1.001953125	2.5343511450381677	0.030534351145038167	0.9465648854961832	0.0	0.0	0.0
2017-08-17 18:14:06.419411	lat	lng	0.003662109375	0.009521484375	0.97412109375	2.763358778625954	-3.9083969465648853	0.9465648854961832	0.0	0.0	0.0
2017-08-17 18:14:06.438960	lat	lng	0.003173828125	0.007568359375	0.9970703125	2.549618320610687	-0.0916030534351145	0.732824427480916	0.0	0.0	0.0
2017-08-17 18:14:06.462702	lat	lng	0.005126953125	0.00927734375	0.997802734375	2.595419847328244	-0.16793893129770993	0.916030534351145	0.0	0.0	0.0
2017-08-17 18:14:06.481296	lat	lng	0.00390625	0.003662109375	0.997314453125	2.4732824427480917	-0.10687022900763359	0.7938931297709924	0.0	0.0	0.0
2017-08-17 18:14:06.505205	lat	lng	0.0048828125	0.010009765625	1.00048828125	2.5801526717557253	-0.24427480916030533	0.6564885496183206	0.0	0.0	0.0
2017-08-17 18:14:06.523371	lat	lng	0.0087890625	0.009765625	0.994873046875	2.427480916030534	0.0	0.7480916030534351	0.0	0.0	0.0
2017-08-17 18:14:06.543964	lat	lng	0.008056640625	0.00390625	0.995361328125	2.5801526717557253	-0.030534351145038167	0.6106870229007634	0.0	0.0	0.0
2017-08-17 18:14:06.565168	lat	lng	0.00634765625	0.00830078125	1.0029296875	2.732824427480916	-0.061068702290076333	0.6106870229007634	0.0	0.0	0.0
2017-08-17 18:14:06.588683	lat	lng	0.00390625	0.0048828125	1.00048828125	2.6106870229007635	-0.15267175572519084	0.7022900763358778	0.0	0.0	0.0
2017-08-17 18:14:06.611584	lat	lng	0.003173828125	0.007568359375	0.99365234375	2.5801526717557253	-0.10687022900763359	0.6259541984732825	0.0	0.0	0.0
2017-08-17 18:14:06.634523	lat	lng	0.00732421875	0.00537109375	0.997802734375	2.595419847328244	-0.3969465648854962	0.6717557251908397	0.0	0.0	0.0
2017-08-17 18:14:06.657000	lat	lng	0.005126953125	0.009765625	0.994384765625	2.6412213740458017	0.061068702290076333	0.7480916030534351	0.0	0.0	0.0
2017-08-17 18:14:06.681123	lat	lng	0.00390625	0.00732421875	0.997802734375	2.687022900763359	0.030534351145038167	0.7022900763358778	0.0	0.0	0.0
2017-08-17 18:14:06.706035	lat	lng	0.006103515625	0.01318359375	0.99853515625	2.6717557251908395	-0.183206106870229	0.48854961832061067	0.0	0.0	0.0
2017-08-17 18:14:06.730293	lat	lng	0.0068359375	0.00830078125	0.99267578125	2.33587786259542	-0.2748091603053435	0.8549618320610687	0.0	0.0	0.0
2017-08-17 18:14:06.755634	lat	lng	0.005126953125	0.00439453125	0.996826171875	2.6564885496183206	-0.24427480916030533	0.6106870229007634	0.0	0.0	0.0
2017-08-17 18:14:06.785427	lat	lng	0.003662109375	0.007080078125	0.99609375	2.732824427480916	-0.21374045801526717	0.6259541984732825	0.0	0.0	0.0
2017-08-17 18:14:06.807200	lat	lng	0.008056640625	0.008056640625	1.000244140625	2.7938931297709924	-0.16793893129770993	0.5954198473282443	0.0	0.0	0.0
2017-08-17 18:14:06.832949	lat	lng	0.006103515625	0.006103515625	1.000244140625	2.564885496183206	-0.061068702290076333	0.7786259541984732	0.0	0.0	0.0
2017-08-17 18:14:06.854468	lat	lng	0.007568359375	0.0078125	1.002197265625	2.50381679389313	-0.12213740458015267	0.6717557251908397	0.0	0.0	0.0
2017-08-17 18:14:06.871589	lat	lng	0.00830078125	0.010498046875	1.001220703125	2.2290076335877864	-0.32061068702290074	0.7938931297709924	0.0	0.0	0.0
2017-08-17 18:14:06.889671	lat	lng	0.005615234375	0.010986328125	1.0	2.4732824427480917	-0.15267175572519084	0.7786259541984732	0.0	0.0	0.0
2017-08-17 18:14:06.907380	lat	lng	0.0068359375	0.007568359375	1.00830078125	2.717557251908397	-0.3816793893129771	0.8244274809160306	0.0	0.0	0.0
2017-08-17 18:14:06.925859	lat	lng	0.0029296875	0.00830078125	0.99755859375	2.6259541984732824	-0.12213740458015267	0.7480916030534351	0.0	0.0	0.0
2017-08-17 18:14:06.944281	lat	lng	0.005859375	0.00439453125	1.005126953125	2.732824427480916	-0.04580152671755725	0.8854961832061069	0.0	0.0	0.0
2017-08-17 18:14:06.963011	lat	lng	0.00341796875	0.008056640625	0.997314453125	2.6564885496183206	-0.24427480916030533	0.5954198473282443	0.0	0.0	0.0
2017-08-17 18:14:06.981244	lat	lng	0.0048828125	0.00830078125	0.997802734375	2.50381679389313	-0.2595419847328244	0.6412213740458015	0.0	0.0	0.0
2017-08-17 18:14:06.999956	lat	lng	0.00634765625	0.01416015625	1.004150390625	2.564885496183206	-0.21374045801526717	0.9465648854961832	0.0	0.0	0.0
2017-08-17 18:14:07.019947	lat	lng	0.005126953125	0.00732421875	0.997802734375	2.5801526717557253	-0.07633587786259542	0.8091603053435115	0.0	0.0	0.0
2017-08-17 18:14:07.042806	lat	lng	0.00439453125	0.00634765625	1.005859375	2.6106870229007635	-0.0916030534351145	0.9465648854961832	0.0	0.0	0.0
2017-08-17 18:14:07.065386	lat	lng	0.006103515625	0.004638671875	1.007568359375	2.519083969465649	0.061068702290076333	0.8549618320610687	0.0	0.0	0.0
2017-08-17 18:14:07.083702	lat	lng	0.008056640625	0.00634765625	1.001708984375	2.6412213740458017	0.0	0.9312977099236641	0.0	0.0	0.0
2017-08-17 18:14:07.104922	lat	lng	0.0068359375	0.00634765625	0.99658203125	2.6412213740458017	-0.13740458015267176	0.549618320610687	0.0	0.0	0.0
2017-08-17 18:14:07.125910	lat	lng	0.0048828125	0.005859375	1.003173828125	2.549618320610687	3.6946564885496183	0.7938931297709924	0.0	0.0	0.0
2017-08-17 18:14:07.143916	lat	lng	0.007080078125	0.009033203125	1.006591796875	2.5343511450381677	-0.2595419847328244	0.6870229007633588	0.0	0.0	0.0
2017-08-17 18:14:07.160798	lat	lng	0.00537109375	0.0087890625	1.0048828125	2.6106870229007635	0.07633587786259542	0.5190839694656488	0.0	0.0	0.0
2017-08-17 18:14:07.178552	lat	lng	0.006103515625	0.00732421875	1.001708984375	2.3969465648854964	-0.10687022900763359	0.5038167938931297	0.0	0.0	0.0
2017-08-17 18:14:07.196039	lat	lng	0.0029296875	0.004638671875	0.9951171875	2.687022900763359	0.0	0.8549618320610687	0.0	0.0	0.0
2017-08-17 18:14:07.215714	lat	lng	0.005859375	0.004638671875	1.001708984375	2.6259541984732824	-0.183206106870229	0.8854961832061069	0.0	0.0	0.0
2017-08-17 18:14:07.235632	lat	lng	0.005859375	0.00390625	1.006591796875	2.7480916030534353	-0.22900763358778625	0.8091603053435115	0.0	0.0	0.0
2017-08-17 18:14:07.255077	lat	lng	0.000732421875	0.005615234375	0.970703125	2.50381679389313	-0.015267175572519083	0.9312977099236641	0.0	0.0	0.0
2017-08-17 18:14:07.275542	lat	lng	0.005859375	0.00830078125	0.99609375	2.4427480916030535	0.183206106870229	0.9312977099236641	0.0	0.0	0.0
2017-08-17 18:14:07.292791	lat	lng	0.00244140625	0.005859375	0.996826171875	2.5801526717557253	-0.0916030534351145	0.6412213740458015	0.0	0.0	0.0
2017-08-17 18:14:07.312121	lat	lng	0.00390625	0.0087890625	0.998291015625	2.4732824427480917	-3.9083969465648853	0.8854961832061069	0.0	0.0	0.0
2017-08-17 18:14:07.330114	lat	lng	0.00830078125	0.007568359375	1.001708984375	2.564885496183206	-0.04580152671755725	0.7175572519083969	0.0	0.0	0.0
2017-08-17 18:14:07.349510	lat	lng	0.00830078125	0.011962890625	1.001220703125	2.7022900763358777	-0.04580152671755725	0.5190839694656488	0.0	0.0	0.0
2017-08-17 18:14:07.371285	lat	lng	0.00390625	0.0068359375	1.003173828125	2.564885496183206	-0.13740458015267176	0.7633587786259542	0.0	0.0	0.0
2017-08-17 18:14:07.402576	lat	lng	0.005859375	0.005859375	0.99951171875	2.6412213740458017	-0.12213740458015267	0.7938931297709924	0.0	0.0	0.0
2017-08-17 18:14:07.420145	lat	lng	0.006591796875	0.007080078125	0.99755859375	2.4732824427480917	-0.2595419847328244	0.8854961832061069	0.0	0.0	0.0
2017-08-17 18:14:07.436822	lat	lng	0.00830078125	0.004150390625	1.00048828125	2.6717557251908395	-0.015267175572519083	0.6870229007633588	0.0	0.0	0.0
2017-08-17 18:14:07.453988	lat	lng	0.007568359375	0.004638671875	1.0029296875	2.4427480916030535	-3.9083969465648853	0.6564885496183206	0.0	0.0	0.0
2017-08-17 18:14:07.470886	lat	lng	0.005859375	0.005126953125	1.00244140625	2.4885496183206106	-0.32061068702290074	0.7633587786259542	0.0	0.0	0.0
2017-08-17 18:14:07.488712	lat	lng	0.0048828125	0.0068359375	1.0048828125	2.4885496183206106	-0.07633587786259542	0.8549618320610687	0.0	0.0	0.0
2017-08-17 18:14:07.505685	lat	lng	0.005859375	0.007568359375	1.00537109375	2.4427480916030535	-0.12213740458015267	0.6870229007633588	0.0	0.0	0.0
2017-08-17 18:14:07.523271	lat	lng	0.006591796875	0.00634765625	1.0	2.564885496183206	0.04580152671755725	0.7633587786259542	0.0	0.0	0.0
2017-08-17 18:14:07.540505	lat	lng	0.009033203125	0.008056640625	1.00390625	2.6717557251908395	-0.24427480916030533	0.9618320610687023	0.0	0.0	0.0
2017-08-17 18:14:07.559798	lat	lng	0.00732421875	0.00537109375	1.002685546875	2.6717557251908395	-0.04580152671755725	0.8854961832061069	0.0	0.0	0.0
2017-08-17 18:14:07.580281	lat	lng	0.008056640625	0.004638671875	1.005126953125	2.6106870229007635	-0.015267175572519083	1.0381679389312977	0.0	0.0	0.0
2017-08-17 18:14:07.601870	lat	lng	0.0068359375	0.010009765625	0.99755859375	2.595419847328244	-3.8931297709923665	0.8702290076335878	0.0	0.0	0.0
2017-08-17 18:14:07.622473	lat	lng	0.005615234375	0.00537109375	0.99853515625	2.549618320610687	-0.13740458015267176	0.8854961832061069	0.0	0.0	0.0
2017-08-17 18:14:07.643469	lat	lng	0.0068359375	0.004638671875	0.99560546875	2.6717557251908395	-0.2900763358778626	0.8549618320610687	0.0	0.0	0.0
2017-08-17 18:14:07.664325	lat	lng	0.007568359375	0.005126953125	1.00390625	2.4885496183206106	-0.12213740458015267	0.6870229007633588	0.0	0.0	0.0
2017-08-17 18:14:07.685282	lat	lng	0.005859375	0.005615234375	1.003173828125	2.854961832061069	-0.24427480916030533	0.6259541984732825	0.0	0.0	0.0
2017-08-17 18:14:07.706359	lat	lng	0.005859375	0.00732421875	0.998046875	2.6717557251908395	0.061068702290076333	0.7633587786259542	0.0	0.0	0.0
2017-08-17 18:14:07.727188	lat	lng	0.006103515625	0.00830078125	1.030029296875	2.7480916030534353	-0.16793893129770993	0.916030534351145	0.0	0.0	0.0
2017-08-17 18:14:07.748199	lat	lng	0.007568359375	0.005615234375	1.0009765625	2.687022900763359	3.8931297709923665	0.7175572519083969	0.0	0.0	0.0
2017-08-17 18:14:07.769017	lat	lng	0.00634765625	0.005126953125	1.005126953125	2.381679389312977	-0.04580152671755725	0.6870229007633588	0.0	0.0	0.0
2017-08-17 18:14:07.789961	lat	lng	0.007568359375	0.005615234375	1.001220703125	2.564885496183206	0.030534351145038167	0.7022900763358778	0.0	0.0	0.0
2017-08-17 18:14:07.811931	lat	lng	0.005859375	0.00732421875	0.99560546875	2.6564885496183206	-0.4122137404580153	0.8396946564885496	0.0	0.0	0.0
2017-08-17 18:14:07.834094	lat	lng	0.0068359375	0.0087890625	1.006103515625	2.427480916030534	-0.2595419847328244	0.9923664122137404	0.0	0.0	0.0
2017-08-17 18:14:07.856406	lat	lng	0.0068359375	0.008544921875	1.0	2.595419847328244	0.0	0.6717557251908397	0.0	0.0	0.0
2017-08-17 18:14:07.878883	lat	lng	0.005126953125	0.00537109375	0.9990234375	2.8244274809160306	-0.04580152671755725	0.8702290076335878	0.0	0.0	0.0
2017-08-17 18:14:07.901412	lat	lng	0.0068359375	0.004150390625	1.005126953125	2.6564885496183206	-0.32061068702290074	0.8091603053435115	0.0	0.0	0.0
2017-08-17 18:14:07.923887	lat	lng	0.005126953125	0.0078125	0.999267578125	2.5801526717557253	-0.04580152671755725	0.8091603053435115	0.0	0.0	0.0
2017-08-17 18:14:07.946550	lat	lng	0.00146484375	0.009765625	1.002685546875	2.6412213740458017	-0.2900763358778626	0.8091603053435115	0.0	0.0	0.0
2017-08-17 18:14:07.967354	lat	lng	0.00537109375	0.003662109375	0.997314453125	2.5343511450381677	0.0	0.6259541984732825	0.0	0.0	0.0
2017-08-17 18:14:07.987865	lat	lng	0.006103515625	0.007080078125	0.99853515625	2.366412213740458	-0.0916030534351145	0.5648854961832062	0.0	0.0	0.0
2017-08-17 18:14:08.008848	lat	lng	0.005615234375	0.010009765625	1.000732421875	2.4885496183206106	-0.10687022900763359	0.8549618320610687	0.0	0.0	0.0
2017-08-17 18:14:08.029780	lat	lng	0.003662109375	0.004150390625	0.99755859375	2.717557251908397	-0.16793893129770993	0.9007633587786259	0.0	0.0	0.0
2017-08-17 18:14:08.051900	lat	lng	0.0048828125	0.008056640625	1.0	2.7022900763358777	0.15267175572519084	0.6717557251908397	0.0	0.0	0.0
2017-08-17 18:14:08.074226	lat	lng	0.004638671875	0.002197265625	1.000732421875	2.549618320610687	0.061068702290076333	0.6870229007633588	0.0	0.0	0.0
2017-08-17 18:14:08.097112	lat	lng	-0.000244140625	0.005859375	0.998046875	2.763358778625954	-0.33587786259541985	0.7938931297709924	0.0	0.0	0.0
2017-08-17 18:14:08.119431	lat	lng	0.004150390625	0.006591796875	0.999755859375	2.732824427480916	-0.183206106870229	0.7938931297709924	0.0	0.0	0.0
2017-08-17 18:14:08.142694	lat	lng	0.005126953125	0.0068359375	1.0009765625	2.549618320610687	-0.10687022900763359	0.7480916030534351	0.0	0.0	0.0
2017-08-17 18:14:08.165465	lat	lng	0.00390625	0.005615234375	0.99853515625	2.687022900763359	-0.12213740458015267	0.8091603053435115	0.0	0.0	0.0
2017-08-17 18:14:08.188519	lat	lng	0.00439453125	0.005859375	1.001220703125	2.5801526717557253	-3.9083969465648853	0.6870229007633588	0.0	0.0	0.0
2017-08-17 18:14:08.211363	lat	lng	0.007568359375	0.00439453125	1.0029296875	2.5343511450381677	-0.183206106870229	0.9770992366412213	0.0	0.0	0.0
2017-08-17 18:14:08.234760	lat	lng	0.006103515625	0.01025390625	1.00439453125	2.6412213740458017	-0.183206106870229	0.7175572519083969	0.0	0.0	0.0
2017-08-17 18:14:08.256414	lat	lng	0.00537109375	0.0068359375	0.995849609375	2.8091603053435112	-0.24427480916030533	0.5190839694656488	0.0	0.0	0.0
2017-08-17 18:14:08.276276	lat	lng	0.0087890625	0.0068359375	1.002197265625	2.4732824427480917	-0.030534351145038167	0.5190839694656488	0.0	0.0	0.0
2017-08-17 18:14:08.295865	lat	lng	0.00537109375	0.008056640625	1.001953125	2.5343511450381677	-0.12213740458015267	0.7022900763358778	0.0	0.0	0.0
2017-08-17 18:14:08.315308	lat	lng	0.00634765625	0.00732421875	0.993408203125	2.763358778625954	-0.10687022900763359	0.8396946564885496	0.0	0.0	0.0
2017-08-17 18:14:08.335844	lat	lng	0.002197265625	0.00634765625	0.994140625	2.687022900763359	-0.2748091603053435	0.8549618320610687	0.0	0.0	0.0
2017-08-17 18:14:08.353013	lat	lng	0.005615234375	0.005859375	1.02490234375	2.4885496183206106	-0.061068702290076333	0.8702290076335878	0.0	0.0	0.0
2017-08-17 18:14:08.372509	lat	lng	0.00830078125	0.003662109375	1.002197265625	2.885496183206107	-0.061068702290076333	0.7022900763358778	0.0	0.0	0.0
2017-08-17 18:14:08.389604	lat	lng	0.006591796875	0.00244140625	1.027587890625	2.4580152671755724	-0.16793893129770993	0.7938931297709924	0.0	0.0	0.0
2017-08-17 18:14:08.409542	lat	lng	0.003173828125	0.005859375	1.005126953125	2.3206106870229006	-0.015267175572519083	0.7175572519083969	0.0	0.0	0.0
2017-08-17 18:14:08.428405	lat	lng	0.010498046875	0.006591796875	0.998291015625	2.732824427480916	-0.15267175572519084	0.7938931297709924	0.0	0.0	0.0
2017-08-17 18:14:08.447722	lat	lng	0.007080078125	0.009033203125	1.006103515625	2.946564885496183	-0.2900763358778626	0.7938931297709924	0.0	0.0	0.0
2017-08-17 18:14:08.466752	lat	lng	0.0078125	0.0029296875	1.001220703125	2.564885496183206	-0.015267175572519083	0.6717557251908397	0.0	0.0	0.0
2017-08-17 18:14:08.485563	lat	lng	0.007568359375	0.00244140625	1.029052734375	2.8396946564885495	-0.16793893129770993	0.5801526717557252	0.0	0.0	0.0
2017-08-17 18:14:08.507061	lat	lng	0.005126953125	0.004638671875	1.00537109375	2.8702290076335877	-0.15267175572519084	0.7633587786259542	0.0	0.0	0.0
2017-08-17 18:14:08.525583	lat	lng	0.010009765625	0.01953125	1.0029296875	2.717557251908397	0.12213740458015267	0.916030534351145	0.0	0.0	0.0
2017-08-17 18:14:08.546464	lat	lng	0.005126953125	0.005859375	0.996337890625	2.351145038167939	-0.1984732824427481	0.8396946564885496	0.0	0.0	0.0
2017-08-17 18:14:08.563350	lat	lng	0.010986328125	0.017578125	1.005126953125	2.5801526717557253	0.12213740458015267	0.7022900763358778	0.0	0.0	0.0
2017-08-17 18:14:08.581369	lat	lng	0.004638671875	0.00244140625	1.00244140625	2.4732824427480917	-0.07633587786259542	0.8396946564885496	0.0	0.0	0.0
2017-08-17 18:14:08.598305	lat	lng	0.0048828125	0.010986328125	1.004150390625	2.6564885496183206	-0.16793893129770993	0.7022900763358778	0.0	0.0	0.0
2017-08-17 18:14:08.616148	lat	lng	0.0068359375	0.0	0.994384765625	2.3969465648854964	-0.12213740458015267	0.732824427480916	0.0	0.0	0.0
2017-08-17 18:14:08.633001	lat	lng	0.003173828125	0.01220703125	1.000244140625	2.5801526717557253	-0.2748091603053435	0.8244274809160306	0.0	0.0	0.0
2017-08-17 18:14:08.650724	lat	lng	0.007568359375	0.0029296875	1.003173828125	2.6717557251908395	-0.2748091603053435	0.7938931297709924	0.0	0.0	0.0
2017-08-17 18:14:08.668784	lat	lng	0.007568359375	0.009033203125	0.998291015625	2.198473282442748	-0.10687022900763359	0.7633587786259542	0.0	0.0	0.0
2017-08-17 18:14:08.686899	lat	lng	0.00244140625	0.010986328125	1.001953125	2.4427480916030535	-0.10687022900763359	0.6717557251908397	0.0	0.0	0.0
2017-08-17 18:14:08.704771	lat	lng	0.005615234375	0.006591796875	0.995361328125	2.717557251908397	-0.10687022900763359	0.7786259541984732	0.0	0.0	0.0
2017-08-17 18:14:08.723664	lat	lng	0.003662109375	0.006591796875	1.0068359375	2.564885496183206	0.16793893129770993	0.7022900763358778	0.0	0.0	0.0
2017-08-17 18:14:08.741845	lat	lng	0.0068359375	0.006103515625	1.0009765625	2.549618320610687	-0.183206106870229	0.6870229007633588	0.0	0.0	0.0
2017-08-17 18:14:08.761337	lat	lng	0.005126953125	0.00830078125	1.001708984375	2.7022900763358777	-0.0916030534351145	0.6717557251908397	0.0	0.0	0.0
2017-08-17 18:14:08.779260	lat	lng	0.009765625	0.010009765625	1.003173828125	2.5801526717557253	-0.2900763358778626	0.7480916030534351	0.0	0.0	0.0
2017-08-17 18:14:08.798205	lat	lng	0.009521484375	0.0107421875	1.00634765625	2.4122137404580153	0.04580152671755725	0.7938931297709924	0.0	0.0	0.0
2017-08-17 18:14:08.816686	lat	lng	0.0068359375	0.00732421875	0.992431640625	2.7938931297709924	-0.12213740458015267	0.48854961832061067	0.0	0.0	0.0
2017-08-17 18:14:08.835817	lat	lng	0.007568359375	0.00927734375	1.000732421875	2.50381679389313	-3.8931297709923665	0.9312977099236641	0.0	0.0	0.0
2017-08-17 18:14:08.854240	lat	lng	0.00341796875	0.009033203125	1.00537109375	2.6564885496183206	-0.10687022900763359	0.7786259541984732	0.0	0.0	0.0
2017-08-17 18:14:08.873117	lat	lng	0.008544921875	0.009521484375	1.004638671875	2.6564885496183206	-0.061068702290076333	0.8396946564885496	0.0	0.0	0.0
2017-08-17 18:14:08.891583	lat	lng	0.009521484375	0.01025390625	1.00244140625	2.366412213740458	-0.3816793893129771	0.8702290076335878	0.0	0.0	0.0
2017-08-17 18:14:08.910131	lat	lng	0.0068359375	0.003662109375	1.001708984375	2.4732824427480917	-0.24427480916030533	0.7633587786259542	0.0	0.0	0.0
2017-08-17 18:14:08.932663	lat	lng	0.006591796875	0.007568359375	0.9736328125	2.7022900763358777	-0.15267175572519084	0.8091603053435115	0.0	0.0	0.0
2017-08-17 18:14:08.951899	lat	lng	0.0078125	0.0078125	1.001708984375	2.519083969465649	-0.24427480916030533	0.5954198473282443	0.0	0.0	0.0
2017-08-17 18:14:08.975131	lat	lng	-0.0009765625	0.006591796875	0.9990234375	2.564885496183206	0.0916030534351145	0.8549618320610687	0.0	0.0	0.0
2017-08-17 18:14:09.006674	lat	lng	0.004150390625	0.004150390625	0.998779296875	2.4580152671755724	-0.0916030534351145	0.9770992366412213	0.0	0.0	0.0
2017-08-17 18:14:09.030001	lat	lng	0.0078125	0.002685546875	0.99755859375	2.7022900763358777	-0.15267175572519084	0.7480916030534351	0.0	0.0	0.0
2017-08-17 18:14:09.061362	lat	lng	0.007080078125	0.00634765625	0.99462890625	2.687022900763359	3.8931297709923665	0.7633587786259542	0.0	0.0	0.0
2017-08-17 18:14:09.088072	lat	lng	0.005859375	0.00732421875	0.996337890625	2.4122137404580153	-0.21374045801526717	0.8244274809160306	0.0	0.0	0.0
2017-08-17 18:14:09.109048	lat	lng	0.00244140625	0.00634765625	0.9990234375	2.717557251908397	0.061068702290076333	0.7175572519083969	0.0	0.0	0.0
2017-08-17 18:14:09.126441	lat	lng	0.00244140625	0.00341796875	1.0009765625	2.50381679389313	-0.04580152671755725	0.6412213740458015	0.0	0.0	0.0
2017-08-17 18:14:09.146153	lat	lng	0.004150390625	0.003662109375	0.9970703125	2.595419847328244	-0.04580152671755725	0.9923664122137404	0.0	0.0	0.0
2017-08-17 18:14:09.163195	lat	lng	0.002685546875	0.004638671875	1.005126953125	2.6412213740458017	-0.183206106870229	0.7938931297709924	0.0	0.0	0.0
2017-08-17 18:14:09.185718	lat	lng	0.008056640625	0.004638671875	1.006591796875	2.6717557251908395	0.12213740458015267	0.732824427480916	0.0	0.0	0.0
2017-08-17 18:14:09.202366	lat	lng	0.008056640625	0.01611328125	0.971435546875	2.717557251908397	0.10687022900763359	0.8244274809160306	0.0	0.0	0.0
2017-08-17 18:14:09.219929	lat	lng	0.00634765625	0.009521484375	0.998779296875	2.5801526717557253	0.07633587786259542	0.5343511450381679	0.0	0.0	0.0
2017-08-17 18:14:09.236993	lat	lng	0.00439453125	0.010009765625	1.005126953125	2.6259541984732824	-0.32061068702290074	0.7633587786259542	0.0	0.0	0.0
2017-08-17 18:14:09.255075	lat	lng	0.005615234375	0.00830078125	1.002685546875	2.6259541984732824	-0.030534351145038167	0.6564885496183206	0.0	0.0	0.0
2017-08-17 18:14:09.272850	lat	lng	0.005859375	0.0078125	0.999755859375	2.7786259541984735	-0.24427480916030533	0.6259541984732825	0.0	0.0	0.0
2017-08-17 18:14:09.290365	lat	lng	0.001708984375	0.0029296875	1.00244140625	2.732824427480916	-0.16793893129770993	0.8244274809160306	0.0	0.0	0.0
2017-08-17 18:14:09.307435	lat	lng	0.004638671875	0.00390625	0.998779296875	2.6106870229007635	0.12213740458015267	0.7633587786259542	0.0	0.0	0.0
2017-08-17 18:14:09.325195	lat	lng	0.010498046875	0.005126953125	1.00830078125	2.6259541984732824	-0.4122137404580153	0.8854961832061069	0.0	0.0	0.0
2017-08-17 18:14:09.342413	lat	lng	0.009521484375	0.01220703125	1.000244140625	2.4885496183206106	-0.07633587786259542	0.8549618320610687	0.0	0.0	0.0
2017-08-17 18:14:09.360303	lat	lng	0.00537109375	0.010986328125	1.0048828125	2.366412213740458	0.13740458015267176	0.7938931297709924	0.0	0.0	0.0
2017-08-17 18:14:09.376952	lat	lng	0.00732421875	0.016357421875	1.00341796875	2.5343511450381677	-0.24427480916030533	0.916030534351145	0.0	0.0	0.0
2017-08-17 18:14:09.393873	lat	lng	0.00244140625	0.01513671875	1.002197265625	2.33587786259542	-0.2595419847328244	0.9312977099236641	0.0	0.0	0.0
2017-08-17 18:14:09.410227	lat	lng	0.005615234375	0.010009765625	1.004150390625	2.50381679389313	-0.3053435114503817	0.8702290076335878	0.0	0.0	0.0
2017-08-17 18:14:09.427799	lat	lng	0.004638671875	0.0048828125	1.00048828125	2.2748091603053435	-0.24427480916030533	1.0229007633587786	0.0	0.0	0.0
2017-08-17 18:14:09.445380	lat	lng	0.007080078125	0.002197265625	0.9970703125	2.2595419847328246	-0.13740458015267176	0.8396946564885496	0.0	0.0	0.0
2017-08-17 18:14:09.462095	lat	lng	0.002685546875	0.00048828125	0.998779296875	2.2290076335877864	-0.2900763358778626	0.8244274809160306	0.0	0.0	0.0
2017-08-17 18:14:09.478501	lat	lng	0.007080078125	-0.000244140625	0.99560546875	2.4885496183206106	-0.1984732824427481	0.7022900763358778	0.0	0.0	0.0
2017-08-17 18:14:09.496028	lat	lng	0.00732421875	0.002685546875	1.0078125	2.6259541984732824	-0.10687022900763359	0.7938931297709924	0.0	0.0	0.0
2017-08-17 18:14:09.512936	lat	lng	0.00048828125	-0.000244140625	1.0009765625	2.564885496183206	-0.13740458015267176	0.6259541984732825	0.0	0.0	0.0
2017-08-17 18:14:09.534632	lat	lng	0.001953125	0.004150390625	1.02880859375	2.519083969465649	-0.12213740458015267	0.549618320610687	0.0	0.0	0.0
2017-08-17 18:14:09.551619	lat	lng	0.00244140625	0.00439453125	0.99560546875	2.6564885496183206	0.015267175572519083	0.549618320610687	0.0	0.0	0.0
2017-08-17 18:14:09.568984	lat	lng	0.0029296875	0.0087890625	0.994384765625	2.6717557251908395	0.0	0.7633587786259542	0.0	0.0	0.0
2017-08-17 18:14:09.585758	lat	lng	0.01025390625	0.009033203125	1.01025390625	2.564885496183206	-0.16793893129770993	0.5343511450381679	0.0	0.0	0.0
2017-08-17 18:14:09.606065	lat	lng	0.009521484375	0.006591796875	1.00341796875	2.5801526717557253	-0.015267175572519083	0.5801526717557252	0.0	0.0	0.0
2017-08-17 18:14:09.622857	lat	lng	0.0078125	0.01220703125	1.001708984375	2.6717557251908395	-0.16793893129770993	0.6870229007633588	0.0	0.0	0.0
2017-08-17 18:14:09.639961	lat	lng	0.0068359375	0.015869140625	0.997802734375	2.4732824427480917	0.0916030534351145	0.6870229007633588	0.0	0.0	0.0
2017-08-17 18:14:09.656471	lat	lng	0.0068359375	0.01513671875	1.0029296875	2.6717557251908395	-0.061068702290076333	1.0229007633587786	0.0	0.0	0.0
2017-08-17 18:14:09.673288	lat	lng	0.007080078125	0.0087890625	1.001220703125	2.4732824427480917	-0.15267175572519084	0.732824427480916	0.0	0.0	0.0
2017-08-17 18:14:09.689973	lat	lng	0.006103515625	0.007568359375	1.0	2.564885496183206	-0.030534351145038167	0.732824427480916	0.0	0.0	0.0
2017-08-17 18:14:09.718680	lat	lng	0.0068359375	0.00732421875	1.000732421875	2.732824427480916	0.015267175572519083	0.9618320610687023	0.0	0.0	0.0
2017-08-17 18:14:09.736623	lat	lng	0.005126953125	0.003173828125	1.0	2.595419847328244	-0.061068702290076333	0.7022900763358778	0.0	0.0	0.0
2017-08-17 18:14:09.754368	lat	lng	0.005859375	0.002685546875	1.001953125	2.564885496183206	-0.061068702290076333	0.732824427480916	0.0	0.0	0.0
2017-08-17 18:14:09.772533	lat	lng	-0.00048828125	0.005615234375	1.002197265625	2.6259541984732824	-0.2748091603053435	0.7022900763358778	0.0	0.0	0.0
2017-08-17 18:14:09.796039	lat	lng	0.003662109375	0.01025390625	0.997314453125	2.6106870229007635	-0.1984732824427481	0.916030534351145	0.0	0.0	0.0
2017-08-17 18:14:09.817417	lat	lng	0.006103515625	0.007568359375	0.993896484375	2.5343511450381677	-0.21374045801526717	0.6870229007633588	0.0	0.0	0.0
2017-08-17 18:14:09.840529	lat	lng	0.006103515625	0.0029296875	1.004150390625	2.6412213740458017	-0.183206106870229	0.7175572519083969	0.0	0.0	0.0
2017-08-17 18:14:09.864223	lat	lng	0.008056640625	0.00732421875	1.006591796875	2.6259541984732824	-0.366412213740458	0.916030534351145	0.0	0.0	0.0
2017-08-17 18:14:09.887175	lat	lng	0.00537109375	0.0087890625	0.995849609375	2.366412213740458	-0.1984732824427481	0.6870229007633588	0.0	0.0	0.0
2017-08-17 18:14:09.911214	lat	lng	0.002197265625	0.004150390625	1.005859375	2.6259541984732824	-0.030534351145038167	0.8396946564885496	0.0	0.0	0.0
2017-08-17 18:14:09.933969	lat	lng	0.007568359375	0.008056640625	1.000244140625	2.4885496183206106	-0.2595419847328244	0.8396946564885496	0.0	0.0	0.0
2017-08-17 18:14:09.957639	lat	lng	0.0068359375	0.005859375	1.003662109375	2.7786259541984735	-0.2595419847328244	0.7175572519083969	0.0	0.0	0.0
2017-08-17 18:14:09.987857	lat	lng	0.009033203125	0.002685546875	0.99951171875	2.6106870229007635	-0.07633587786259542	0.7633587786259542	0.0	0.0	0.0
2017-08-17 18:14:10.010604	lat	lng	0.0048828125	0.006591796875	1.00439453125	2.427480916030534	-0.3511450381679389	0.7786259541984732	0.0	0.0	0.0
2017-08-17 18:14:10.034433	lat	lng	0.00390625	0.005615234375	1.00390625	2.6259541984732824	-0.1984732824427481	0.6564885496183206	0.0	0.0	0.0
2017-08-17 18:14:10.059670	lat	lng	0.002685546875	0.011962890625	0.991943359375	2.4427480916030535	-0.0916030534351145	0.732824427480916	0.0	0.0	0.0
2017-08-17 18:14:10.086234	lat	lng	0.0029296875	0.01123046875	1.003662109375	2.595419847328244	-0.15267175572519084	0.7633587786259542	0.0	0.0	0.0
2017-08-17 18:14:10.105849	lat	lng	0.007568359375	0.012939453125	1.004150390625	2.4885496183206106	-0.2595419847328244	0.7480916030534351	0.0	0.0	0.0
2017-08-17 18:14:10.124263	lat	lng	0.005615234375	0.007568359375	1.00244140625	2.717557251908397	0.030534351145038167	0.8854961832061069	0.0	0.0	0.0
2017-08-17 18:14:10.141744	lat	lng	0.0107421875	0.00732421875	1.0048828125	2.50381679389313	-0.183206106870229	1.0687022900763359	0.0	0.0	0.0
2017-08-17 18:14:10.159087	lat	lng	0.00439453125	0.005615234375	1.001953125	2.564885496183206	-0.0916030534351145	1.0229007633587786	0.0	0.0	0.0
2017-08-17 18:14:10.176397	lat	lng	0.00634765625	0.004638671875	0.999267578125	2.519083969465649	0.07633587786259542	0.8702290076335878	0.0	0.0	0.0
2017-08-17 18:14:10.193637	lat	lng	0.00341796875	0.001220703125	1.00927734375	2.6412213740458017	0.04580152671755725	0.6259541984732825	0.0	0.0	0.0
2017-08-17 18:14:10.210908	lat	lng	0.002685546875	0.004150390625	0.998046875	2.33587786259542	-0.366412213740458	0.6717557251908397	0.0	0.0	0.0
2017-08-17 18:14:10.228360	lat	lng	0.003173828125	0.005615234375	1.003662109375	2.4885496183206106	-0.1984732824427481	0.5954198473282443	0.0	0.0	0.0
2017-08-17 18:14:10.246082	lat	lng	0.005859375	0.009521484375	1.00244140625	2.6106870229007635	-0.10687022900763359	0.7786259541984732	0.0	0.0	0.0
2017-08-17 18:14:10.263633	lat	lng	0.0078125	0.011962890625	1.00341796875	2.4885496183206106	-0.12213740458015267	0.9007633587786259	0.0	0.0	0.0
2017-08-17 18:14:10.280938	lat	lng	0.005615234375	0.005126953125	1.001953125	2.7938931297709924	0.0916030534351145	0.6717557251908397	0.0	0.0	0.0
2017-08-17 18:14:10.298498	lat	lng	0.00439453125	0.0087890625	1.0048828125	2.564885496183206	-0.13740458015267176	0.6106870229007634	0.0	0.0	0.0
2017-08-17 18:14:10.315504	lat	lng	0.005615234375	0.00732421875	1.001708984375	2.6259541984732824	-0.16793893129770993	0.8549618320610687	0.0	0.0	0.0
2017-08-17 18:14:10.332558	lat	lng	0.004150390625	0.0087890625	0.99853515625	2.564885496183206	0.07633587786259542	0.6259541984732825	0.0	0.0	0.0
2017-08-17 18:14:10.348984	lat	lng	0.00390625	0.010009765625	0.996337890625	2.519083969465649	-0.1984732824427481	0.7786259541984732	0.0	0.0	0.0
2017-08-17 18:14:10.365876	lat	lng	0.010009765625	0.007568359375	1.00830078125	2.6412213740458017	-0.1984732824427481	0.6106870229007634	0.0	0.0	0.0
2017-08-17 18:14:10.382467	lat	lng	0.00341796875	0.0078125	0.99853515625	2.732824427480916	-0.15267175572519084	0.7938931297709924	0.0	0.0	0.0
2017-08-17 18:14:10.398917	lat	lng	0.0048828125	0.00537109375	1.00244140625	2.564885496183206	-0.366412213740458	0.6564885496183206	0.0	0.0	0.0
2017-08-17 18:14:10.416059	lat	lng	0.00634765625	0.009033203125	1.005126953125	2.4732824427480917	-0.3816793893129771	0.8549618320610687	0.0	0.0	0.0
2017-08-17 18:14:10.432500	lat	lng	0.008056640625	0.0087890625	0.9990234375	2.595419847328244	-0.13740458015267176	0.4580152671755725	0.0	0.0	0.0
2017-08-17 18:14:10.448836	lat	lng	0.009033203125	0.0068359375	1.001220703125	2.4732824427480917	-0.0916030534351145	0.732824427480916	0.0	0.0	0.0
2017-08-17 18:14:10.465299	lat	lng	0.0078125	0.010986328125	1.004150390625	2.427480916030534	-0.2595419847328244	0.6564885496183206	0.0	0.0	0.0
2017-08-17 18:14:10.481594	lat	lng	0.00634765625	0.00634765625	0.9951171875	2.7480916030534353	-3.9083969465648853	0.6717557251908397	0.0	0.0	0.0
2017-08-17 18:14:10.497937	lat	lng	0.00341796875	0.009521484375	1.00830078125	2.763358778625954	-0.061068702290076333	0.7480916030534351	0.0	0.0	0.0
2017-08-17 18:14:10.514376	lat	lng	0.0048828125	0.0087890625	1.006591796875	2.33587786259542	0.0	0.7938931297709924	0.0	0.0	0.0
2017-08-17 18:14:10.530674	lat	lng	0.00634765625	0.010009765625	1.0048828125	2.6564885496183206	0.07633587786259542	0.8549618320610687	0.0	0.0	0.0
2017-08-17 18:14:10.547085	lat	lng	0.0029296875	0.007568359375	1.00927734375	2.6106870229007635	-0.030534351145038167	0.5801526717557252	0.0	0.0	0.0
2017-08-17 18:14:10.567037	lat	lng	0.0029296875	0.00439453125	1.000244140625	2.7480916030534353	0.015267175572519083	0.7938931297709924	0.0	0.0	0.0
2017-08-17 18:14:10.583866	lat	lng	0.0009765625	0.00390625	1.00634765625	2.6564885496183206	-0.21374045801526717	0.7786259541984732	0.0	0.0	0.0
2017-08-17 18:14:10.601804	lat	lng	0.0048828125	0.00634765625	0.996337890625	2.6412213740458017	-0.2748091603053435	0.7175572519083969	0.0	0.0	0.0
2017-08-17 18:14:10.618759	lat	lng	0.0087890625	0.007080078125	1.00830078125	2.732824427480916	-0.030534351145038167	0.6870229007633588	0.0	0.0	0.0
2017-08-17 18:14:10.636682	lat	lng	0.004638671875	0.005615234375	0.99853515625	2.5801526717557253	-0.33587786259541985	0.8091603053435115	0.0	0.0	0.0
2017-08-17 18:14:10.653582	lat	lng	0.009765625	0.008544921875	1.0029296875	2.5801526717557253	-0.12213740458015267	0.6870229007633588	0.0	0.0	0.0
2017-08-17 18:14:10.671376	lat	lng	0.009765625	0.0078125	1.00537109375	2.4885496183206106	-0.22900763358778625	0.9312977099236641	0.0	0.0	0.0
2017-08-17 18:14:10.688212	lat	lng	0.0048828125	0.00732421875	1.0009765625	2.6564885496183206	-0.1984732824427481	0.9007633587786259	0.0	0.0	0.0
2017-08-17 18:14:10.706271	lat	lng	0.008056640625	0.006591796875	0.99755859375	2.6106870229007635	0.0	0.7175572519083969	0.0	0.0	0.0
2017-08-17 18:14:10.723117	lat	lng	0.00732421875	0.005126953125	0.998291015625	2.4427480916030535	-0.24427480916030533	0.8854961832061069	0.0	0.0	0.0
2017-08-17 18:14:10.741060	lat	lng	0.005126953125	0.00830078125	0.992431640625	2.4427480916030535	-0.12213740458015267	0.7480916030534351	0.0	0.0	0.0
2017-08-17 18:14:10.759286	lat	lng	0.00537109375	0.0048828125	1.002197265625	2.763358778625954	-0.16793893129770993	0.8244274809160306	0.0	0.0	0.0
2017-08-17 18:14:10.778984	lat	lng	0.00390625	0.00390625	1.001220703125	2.4122137404580153	-0.1984732824427481	0.7786259541984732	0.0	0.0	0.0
2017-08-17 18:14:10.802254	lat	lng	0.005859375	0.003662109375	0.994140625	2.564885496183206	-0.16793893129770993	0.8244274809160306	0.0	0.0	0.0
2017-08-17 18:14:10.826237	lat	lng	0.00634765625	0.004638671875	1.0	2.8244274809160306	-0.366412213740458	0.7022900763358778	0.0	0.0	0.0
2017-08-17 18:14:10.855124	lat	lng	0.008056640625	0.00244140625	0.99755859375	2.6106870229007635	-0.030534351145038167	0.8702290076335878	0.0	0.0	0.0
2017-08-17 18:14:10.878773	lat	lng	0.005859375	0.009033203125	1.0	2.4885496183206106	-0.22900763358778625	0.732824427480916	0.0	0.0	0.0
2017-08-17 18:14:10.903110	lat	lng	0.0068359375	0.008544921875	1.00537109375	2.7938931297709924	-0.366412213740458	0.7633587786259542	0.0	0.0	0.0
2017-08-17 18:14:10.926997	lat	lng	0.005859375	0.009033203125	0.999267578125	2.5801526717557253	0.061068702290076333	0.7022900763358778	0.0	0.0	0.0
2017-08-17 18:14:10.950361	lat	lng	0.004150390625	0.0078125	1.000732421875	2.6412213740458017	0.07633587786259542	0.7786259541984732	0.0	0.0	0.0
2017-08-17 18:14:10.972013	lat	lng	0.002685546875	0.00537109375	1.00390625	2.4580152671755724	-0.24427480916030533	0.8702290076335878	0.0	0.0	0.0
2017-08-17 18:14:10.993050	lat	lng	0.0068359375	0.00830078125	0.996826171875	2.4732824427480917	-0.16793893129770993	0.8854961832061069	0.0	0.0	0.0
2017-08-17 18:14:11.016012	lat	lng	0.005859375	0.002197265625	0.997802734375	2.4580152671755724	-0.24427480916030533	0.6564885496183206	0.0	0.0	0.0
2017-08-17 18:14:11.038734	lat	lng	0.006591796875	0.004638671875	1.00146484375	2.5801526717557253	-0.0916030534351145	0.6412213740458015	0.0	0.0	0.0
2017-08-17 18:14:11.066417	lat	lng	0.001708984375	0.010498046875	1.005859375	2.519083969465649	-0.1984732824427481	0.6259541984732825	0.0	0.0	0.0
2017-08-17 18:14:11.090273	lat	lng	0.004150390625	0.006591796875	1.000732421875	2.50381679389313	-3.9083969465648853	0.6412213740458015	0.0	0.0	0.0
2017-08-17 18:14:11.118528	lat	lng	0.00146484375	0.004150390625	1.028564453125	2.564885496183206	-0.061068702290076333	0.8549618320610687	0.0	0.0	0.0
2017-08-17 18:14:11.142763	lat	lng	0.006103515625	0.01123046875	0.997314453125	2.4580152671755724	3.8473282442748094	0.8549618320610687	0.0	0.0	0.0
2017-08-17 18:14:11.167332	lat	lng	0.004638671875	0.0107421875	1.00537109375	2.351145038167939	-0.22900763358778625	0.7022900763358778	0.0	0.0	0.0
2017-08-17 18:14:11.191187	lat	lng	0.003173828125	0.009033203125	1.0	2.6564885496183206	-0.3053435114503817	0.916030534351145	0.0	0.0	0.0
2017-08-17 18:14:11.211460	lat	lng	0.0087890625	0.006103515625	0.999267578125	2.427480916030534	0.10687022900763359	0.7938931297709924	0.0	0.0	0.0
2017-08-17 18:14:11.229969	lat	lng	0.00390625	0.01123046875	1.000732421875	2.717557251908397	0.2595419847328244	0.6870229007633588	0.0	0.0	0.0
2017-08-17 18:14:11.248424	lat	lng	0.003662109375	0.006591796875	1.0	2.5343511450381677	0.07633587786259542	0.9312977099236641	0.0	0.0	0.0
2017-08-17 18:14:11.267748	lat	lng	0.004150390625	0.007568359375	1.01025390625	2.564885496183206	-0.24427480916030533	0.7786259541984732	0.0	0.0	0.0
2017-08-17 18:14:11.285474	lat	lng	0.007080078125	0.002685546875	1.00732421875	2.6717557251908395	-0.15267175572519084	0.7786259541984732	0.0	0.0	0.0
2017-08-17 18:14:11.303985	lat	lng	0.005615234375	0.0078125	0.999267578125	2.7938931297709924	0.0	0.7633587786259542	0.0	0.0	0.0
2017-08-17 18:14:11.321535	lat	lng	0.006591796875	0.008544921875	1.0	2.4885496183206106	-0.22900763358778625	0.7938931297709924	0.0	0.0	0.0
2017-08-17 18:14:11.340430	lat	lng	0.004638671875	0.01025390625	1.000244140625	2.595419847328244	-0.1984732824427481	0.9465648854961832	0.0	0.0	0.0
2017-08-17 18:14:11.358014	lat	lng	0.00439453125	0.008544921875	0.994384765625	2.4732824427480917	-0.44274809160305345	0.7480916030534351	0.0	0.0	0.0
2017-08-17 18:14:11.376979	lat	lng	0.00341796875	0.006591796875	1.001953125	2.4885496183206106	-0.183206106870229	0.8854961832061069	0.0	0.0	0.0
2017-08-17 18:14:11.394569	lat	lng	0.003173828125	0.0087890625	1.0009765625	2.427480916030534	-0.3511450381679389	0.7633587786259542	0.0	0.0	0.0
2017-08-17 18:14:11.413314	lat	lng	0.00634765625	0.005126953125	1.000244140625	2.50381679389313	-0.16793893129770993	0.6717557251908397	0.0	0.0	0.0
2017-08-17 18:14:11.430796	lat	lng	0.005859375	0.007080078125	0.99267578125	2.564885496183206	-0.15267175572519084	0.6870229007633588	0.0	0.0	0.0
2017-08-17 18:14:11.449723	lat	lng	0.007080078125	0.006103515625	1.0048828125	2.3969465648854964	-0.061068702290076333	0.7480916030534351	0.0	0.0	0.0
2017-08-17 18:14:11.467395	lat	lng	0.004150390625	0.0068359375	0.969482421875	2.6564885496183206	0.0	0.8244274809160306	0.0	0.0	0.0
2017-08-17 18:14:11.486166	lat	lng	0.005126953125	0.006591796875	0.99853515625	2.3969465648854964	-0.15267175572519084	0.8702290076335878	0.0	0.0	0.0
2017-08-17 18:14:11.503682	lat	lng	0.00439453125	0.005126953125	1.00830078125	2.7480916030534353	-0.061068702290076333	0.8244274809160306	0.0	0.0	0.0
2017-08-17 18:14:11.522336	lat	lng	0.00341796875	0.00732421875	1.00390625	2.5801526717557253	0.10687022900763359	0.9312977099236641	0.0	0.0	0.0
2017-08-17 18:14:11.539978	lat	lng	0.008056640625	0.01025390625	1.002685546875	2.5343511450381677	0.10687022900763359	0.6106870229007634	0.0	0.0	0.0
2017-08-17 18:14:11.558481	lat	lng	0.0029296875	0.01025390625	0.99951171875	2.8396946564885495	-0.183206106870229	0.732824427480916	0.0	0.0	0.0
2017-08-17 18:14:11.577107	lat	lng	0.004638671875	0.0087890625	1.001953125	2.6106870229007635	-0.030534351145038167	0.7480916030534351	0.0	0.0	0.0
2017-08-17 18:14:11.594422	lat	lng	0.003662109375	0.005615234375	0.99658203125	2.4122137404580153	0.030534351145038167	0.7786259541984732	0.0	0.0	0.0
2017-08-17 18:14:11.611526	lat	lng	0.00146484375	0.00537109375	1.0048828125	2.7786259541984735	-0.13740458015267176	0.6717557251908397	0.0	0.0	0.0
2017-08-17 18:14:11.629244	lat	lng	0.0048828125	0.00830078125	1.00341796875	2.8396946564885495	-0.2900763358778626	0.916030534351145	0.0	0.0	0.0
2017-08-17 18:14:11.646479	lat	lng	0.002685546875	0.006591796875	1.00537109375	2.4732824427480917	-0.183206106870229	0.6259541984732825	0.0	0.0	0.0
2017-08-17 18:14:11.670081	lat	lng	0.002197265625	0.003662109375	1.0009765625	2.6412213740458017	0.015267175572519083	0.9007633587786259	0.0	0.0	0.0
2017-08-17 18:14:11.687580	lat	lng	0.004150390625	0.0078125	0.9970703125	2.5343511450381677	-0.24427480916030533	0.6717557251908397	0.0	0.0	0.0
2017-08-17 18:14:11.705607	lat	lng	0.006103515625	0.006103515625	1.003173828125	2.4580152671755724	-0.21374045801526717	0.42748091603053434	0.0	0.0	0.0
2017-08-17 18:14:11.723493	lat	lng	0.00634765625	0.009033203125	1.009033203125	2.50381679389313	-0.07633587786259542	0.9007633587786259	0.0	0.0	0.0
2017-08-17 18:14:11.741409	lat	lng	0.007568359375	0.009765625	0.992919921875	2.6564885496183206	-0.07633587786259542	0.7480916030534351	0.0	0.0	0.0
2017-08-17 18:14:11.758256	lat	lng	0.005615234375	0.00634765625	0.998046875	2.6564885496183206	-0.2595419847328244	0.9007633587786259	0.0	0.0	0.0
2017-08-17 18:14:11.775279	lat	lng	0.0068359375	0.005859375	0.996826171875	2.549618320610687	-0.12213740458015267	0.732824427480916	0.0	0.0	0.0
2017-08-17 18:14:11.794700	lat	lng	0.00732421875	0.0048828125	1.004150390625	2.50381679389313	-0.22900763358778625	0.7786259541984732	0.0	0.0	0.0
2017-08-17 18:14:11.811525	lat	lng	0.003662109375	0.005126953125	0.99365234375	2.4732824427480917	-0.13740458015267176	0.9007633587786259	0.0	0.0	0.0
2017-08-17 18:14:11.828667	lat	lng	0.008056640625	0.00390625	0.99658203125	2.4885496183206106	-0.030534351145038167	0.6412213740458015	0.0	0.0	0.0
2017-08-17 18:14:11.846396	lat	lng	0.00634765625	0.0068359375	0.99658203125	2.6259541984732824	-0.2595419847328244	0.8396946564885496	0.0	0.0	0.0
2017-08-17 18:14:11.863733	lat	lng	0.0048828125	0.005615234375	0.994140625	2.6717557251908395	-0.4122137404580153	0.48854961832061067	0.0	0.0	0.0
2017-08-17 18:14:11.880773	lat	lng	0.0078125	0.006591796875	1.001220703125	2.6412213740458017	-0.1984732824427481	0.9770992366412213	0.0	0.0	0.0
2017-08-17 18:14:11.902605	lat	lng	0.003662109375	0.0048828125	1.001953125	2.5801526717557253	0.07633587786259542	0.8396946564885496	0.0	0.0	0.0
2017-08-17 18:14:11.925115	lat	lng	0.0078125	0.0068359375	0.99658203125	2.595419847328244	-0.04580152671755725	0.8549618320610687	0.0	0.0	0.0
2017-08-17 18:14:11.947113	lat	lng	0.0078125	0.004638671875	1.000244140625	2.549618320610687	-0.15267175572519084	0.8244274809160306	0.0	0.0	0.0
2017-08-17 18:14:11.970389	lat	lng	0.009033203125	0.0087890625	0.99658203125	2.595419847328244	-0.0916030534351145	0.9312977099236641	0.0	0.0	0.0
2017-08-17 18:14:11.995475	lat	lng	0.007080078125	0.0087890625	0.999755859375	2.732824427480916	-0.32061068702290074	0.732824427480916	0.0	0.0	0.0
2017-08-17 18:14:12.019357	lat	lng	0.00537109375	0.00439453125	0.99755859375	2.6412213740458017	-0.061068702290076333	0.6259541984732825	0.0	0.0	0.0
2017-08-17 18:14:12.041902	lat	lng	0.0	0.0068359375	1.001708984375	2.6106870229007635	-0.16793893129770993	0.7786259541984732	0.0	0.0	0.0
2017-08-17 18:14:12.065944	lat	lng	0.007080078125	0.004638671875	0.991455078125	2.4732824427480917	0.061068702290076333	0.732824427480916	0.0	0.0	0.0
2017-08-17 18:14:12.090288	lat	lng	0.00244140625	0.0087890625	0.998291015625	2.549618320610687	-0.44274809160305345	0.7938931297709924	0.0	0.0	0.0
2017-08-17 18:14:12.128695	lat	lng	0.00537109375	0.0078125	0.99951171875	2.564885496183206	-0.2900763358778626	0.8396946564885496	0.0	0.0	0.0
2017-08-17 18:14:12.159792	lat	lng	0.00439453125	0.006591796875	0.996337890625	2.8702290076335877	-0.22900763358778625	0.8854961832061069	0.0	0.0	0.0
2017-08-17 18:14:12.182184	lat	lng	0.00244140625	0.01025390625	1.003173828125	2.7938931297709924	-0.2748091603053435	0.732824427480916	0.0	0.0	0.0
2017-08-17 18:14:12.201454	lat	lng	0.002685546875	0.01025390625	1.005126953125	2.6717557251908395	-0.3053435114503817	0.8854961832061069	0.0	0.0	0.0
2017-08-17 18:14:12.218602	lat	lng	0.00537109375	0.00634765625	0.99267578125	2.6259541984732824	-0.33587786259541985	0.8244274809160306	0.0	0.0	0.0
2017-08-17 18:14:12.237059	lat	lng	0.004638671875	0.006103515625	0.997314453125	2.687022900763359	-0.0916030534351145	0.5954198473282443	0.0	0.0	0.0
2017-08-17 18:14:12.254394	lat	lng	0.00732421875	0.00634765625	1.00146484375	2.4732824427480917	-0.15267175572519084	0.8091603053435115	0.0	0.0	0.0
2017-08-17 18:14:12.272353	lat	lng	0.004150390625	0.004638671875	0.99951171875	2.7786259541984735	-0.16793893129770993	0.732824427480916	0.0	0.0	0.0
2017-08-17 18:14:12.289542	lat	lng	0.0068359375	0.00341796875	1.00146484375	2.6412213740458017	-0.32061068702290074	0.5954198473282443	0.0	0.0	0.0
2017-08-17 18:14:12.307225	lat	lng	0.002685546875	0.010498046875	0.994140625	2.6259541984732824	-0.1984732824427481	0.8396946564885496	0.0	0.0	0.0
2017-08-17 18:14:12.324508	lat	lng	0.004150390625	0.00927734375	1.00048828125	2.7022900763358777	-0.2748091603053435	0.7022900763358778	0.0	0.0	0.0
2017-08-17 18:14:12.342050	lat	lng	0.00634765625	0.005126953125	1.0048828125	2.6259541984732824	-0.15267175572519084	0.7480916030534351	0.0	0.0	0.0
2017-08-17 18:14:12.359284	lat	lng	0.00439453125	0.008056640625	1.009765625	2.427480916030534	-0.3816793893129771	0.9312977099236641	0.0	0.0	0.0
2017-08-17 18:14:12.377004	lat	lng	0.00537109375	0.01025390625	1.00390625	2.7938931297709924	-0.21374045801526717	0.7175572519083969	0.0	0.0	0.0
2017-08-17 18:14:12.405063	lat	lng	0.0087890625	0.009765625	0.97265625	2.427480916030534	0.030534351145038167	0.732824427480916	0.0	0.0	0.0
2017-08-17 18:14:12.423237	lat	lng	0.006591796875	0.00927734375	1.0029296875	2.519083969465649	0.04580152671755725	0.8091603053435115	0.0	0.0	0.0
2017-08-17 18:14:12.439743	lat	lng	0.004638671875	0.007080078125	1.00146484375	2.4427480916030535	-0.015267175572519083	0.6870229007633588	0.0	0.0	0.0
2017-08-17 18:14:12.458778	lat	lng	0.0078125	0.005859375	1.001953125	2.381679389312977	-0.22900763358778625	0.6870229007633588	0.0	0.0	0.0
2017-08-17 18:14:12.476690	lat	lng	0.00537109375	0.005126953125	1.002197265625	2.6564885496183206	-0.10687022900763359	0.9007633587786259	0.0	0.0	0.0
2017-08-17 18:14:12.495853	lat	lng	0.002197265625	0.006103515625	1.004150390625	2.4122137404580153	-0.1984732824427481	0.732824427480916	0.0	0.0	0.0
2017-08-17 18:14:12.514002	lat	lng	0.007080078125	0.0029296875	1.0048828125	2.4122137404580153	-0.22900763358778625	0.6870229007633588	0.0	0.0	0.0
2017-08-17 18:14:12.532500	lat	lng	0.00634765625	0.008544921875	1.00439453125	2.6106870229007635	-0.12213740458015267	0.7480916030534351	0.0	0.0	0.0
2017-08-17 18:14:12.550407	lat	lng	0.002197265625	0.009521484375	1.003173828125	2.549618320610687	-0.24427480916030533	0.9007633587786259	0.0	0.0	0.0
2017-08-17 18:14:12.568767	lat	lng	0.00537109375	0.01123046875	1.000732421875	2.6564885496183206	-0.10687022900763359	0.44274809160305345	0.0	0.0	0.0
2017-08-17 18:14:12.586807	lat	lng	0.00146484375	0.0087890625	0.998779296875	2.549618320610687	-0.1984732824427481	0.6870229007633588	0.0	0.0	0.0
2017-08-17 18:14:12.604850	lat	lng	0.006103515625	0.004150390625	0.999267578125	2.5801526717557253	-0.2595419847328244	0.6870229007633588	0.0	0.0	0.0
2017-08-17 18:14:12.622450	lat	lng	0.00390625	0.003173828125	0.994873046875	2.4732824427480917	0.04580152671755725	0.6717557251908397	0.0	0.0	0.0
2017-08-17 18:14:12.643529	lat	lng	0.0078125	0.00244140625	1.0	2.6412213740458017	-0.15267175572519084	0.6870229007633588	0.0	0.0	0.0
2017-08-17 18:14:12.660206	lat	lng	0.0078125	0.00537109375	0.997802734375	2.564885496183206	-0.21374045801526717	0.7786259541984732	0.0	0.0	0.0
2017-08-17 18:14:12.677443	lat	lng	0.005859375	0.007568359375	0.997314453125	2.6259541984732824	3.8931297709923665	0.8091603053435115	0.0	0.0	0.0
2017-08-17 18:14:12.694196	lat	lng	0.005859375	0.005615234375	0.99951171875	2.6259541984732824	-0.13740458015267176	0.6870229007633588	0.0	0.0	0.0
2017-08-17 18:14:12.711478	lat	lng	0.005126953125	0.0078125	1.0078125	2.4427480916030535	-0.24427480916030533	0.7175572519083969	0.0	0.0	0.0
2017-08-17 18:14:12.733554	lat	lng	0.003662109375	0.0078125	0.9970703125	2.717557251908397	0.04580152671755725	0.7938931297709924	0.0	0.0	0.0
2017-08-17 18:14:12.751332	lat	lng	0.005126953125	0.006591796875	1.00439453125	2.5801526717557253	-0.1984732824427481	0.8244274809160306	0.0	0.0	0.0
2017-08-17 18:14:12.767972	lat	lng	0.006103515625	0.005126953125	0.99658203125	2.6717557251908395	-0.12213740458015267	0.8396946564885496	0.0	0.0	0.0
2017-08-17 18:14:12.785245	lat	lng	0.008544921875	0.006591796875	0.9990234375	2.595419847328244	-0.22900763358778625	0.8244274809160306	0.0	0.0	0.0
2017-08-17 18:14:12.801925	lat	lng	0.00390625	0.0009765625	1.00439453125	2.50381679389313	-0.366412213740458	0.7480916030534351	0.0	0.0	0.0
2017-08-17 18:14:12.818729	lat	lng	0.00439453125	0.0068359375	0.99462890625	2.595419847328244	0.0	0.6870229007633588	0.0	0.0	0.0
2017-08-17 18:14:12.835673	lat	lng	0.004150390625	0.009765625	0.9970703125	2.6412213740458017	-0.0916030534351145	0.7022900763358778	0.0	0.0	0.0
2017-08-17 18:14:12.852600	lat	lng	0.005126953125	0.01611328125	0.99853515625	2.427480916030534	0.07633587786259542	0.7633587786259542	0.0	0.0	0.0
2017-08-17 18:14:12.869406	lat	lng	0.00537109375	0.0146484375	1.006591796875	2.564885496183206	-0.13740458015267176	0.7480916030534351	0.0	0.0	0.0
2017-08-17 18:14:12.886499	lat	lng	0.002685546875	0.009765625	1.001220703125	2.5343511450381677	-0.32061068702290074	0.732824427480916	0.0	0.0	0.0
2017-08-17 18:14:12.908475	lat	lng	0.004638671875	0.003662109375	0.99755859375	2.4122137404580153	0.061068702290076333	0.916030534351145	0.0	0.0	0.0
2017-08-17 18:14:12.930335	lat	lng	0.0068359375	-0.001953125	0.998046875	2.854961832061069	-0.04580152671755725	0.8091603053435115	0.0	0.0	0.0
2017-08-17 18:14:12.952412	lat	lng	0.00439453125	-0.003662109375	1.004150390625	2.4732824427480917	-0.21374045801526717	0.5954198473282443	0.0	0.0	0.0
2017-08-17 18:14:12.975228	lat	lng	0.004638671875	0.0048828125	1.0009765625	2.7022900763358777	0.21374045801526717	0.6564885496183206	0.0	0.0	0.0
2017-08-17 18:14:13.000042	lat	lng	0.001708984375	0.01611328125	0.997314453125	2.595419847328244	-0.13740458015267176	0.5343511450381679	0.0	0.0	0.0
2017-08-17 18:14:13.029329	lat	lng	0.005615234375	0.01708984375	0.989990234375	2.4885496183206106	0.061068702290076333	0.8702290076335878	0.0	0.0	0.0
2017-08-17 18:14:13.050416	lat	lng	0.009033203125	0.0087890625	1.003173828125	2.595419847328244	-0.3053435114503817	0.8396946564885496	0.0	0.0	0.0
2017-08-17 18:14:13.075640	lat	lng	0.010009765625	0.005859375	1.00146484375	2.6259541984732824	-0.07633587786259542	0.9312977099236641	0.0	0.0	0.0
2017-08-17 18:14:13.097617	lat	lng	0.0078125	0.00634765625	1.0009765625	2.732824427480916	-0.030534351145038167	0.7480916030534351	0.0	0.0	0.0
2017-08-17 18:14:13.116063	lat	lng	0.00244140625	0.006591796875	1.00537109375	2.427480916030534	-0.3816793893129771	0.9465648854961832	0.0	0.0	0.0
2017-08-17 18:14:13.133717	lat	lng	0.001953125	0.00634765625	0.997802734375	2.6259541984732824	-0.2900763358778626	0.8244274809160306	0.0	0.0	0.0
2017-08-17 18:14:13.151559	lat	lng	0.00244140625	-0.002685546875	0.989013671875	2.717557251908397	-0.04580152671755725	0.7480916030534351	0.0	0.0	0.0
2017-08-17 18:14:13.168358	lat	lng	0.003662109375	0.00048828125	1.00439453125	2.4122137404580153	-0.3969465648854962	0.549618320610687	0.0	0.0	0.0
2017-08-17 18:14:13.186438	lat	lng	0.010009765625	0.004150390625	0.99462890625	2.6564885496183206	-0.061068702290076333	0.5038167938931297	0.0	0.0	0.0
2017-08-17 18:14:13.203378	lat	lng	0.010009765625	0.01025390625	1.004150390625	2.519083969465649	0.015267175572519083	0.6870229007633588	0.0	0.0	0.0
2017-08-17 18:14:13.220926	lat	lng	0.00634765625	0.012451171875	0.99755859375	2.6259541984732824	-0.061068702290076333	0.9007633587786259	0.0	0.0	0.0
2017-08-17 18:14:13.237741	lat	lng	0.0029296875	0.01220703125	1.007080078125	2.564885496183206	-0.015267175572519083	0.8244274809160306	0.0	0.0	0.0
2017-08-17 18:14:13.255582	lat	lng	0.00390625	0.01123046875	1.028564453125	2.4427480916030535	-0.24427480916030533	0.7633587786259542	0.0	0.0	0.0
2017-08-17 18:14:13.273011	lat	lng	-0.002685546875	0.010986328125	0.99072265625	2.6412213740458017	-0.32061068702290074	0.8549618320610687	0.0	0.0	0.0
2017-08-17 18:14:13.290527	lat	lng	-0.00048828125	0.00146484375	0.99951171875	2.519083969465649	0.04580152671755725	0.6870229007633588	0.0	0.0	0.0
2017-08-17 18:14:13.307768	lat	lng	0.008544921875	0.004150390625	1.00439453125	2.564885496183206	-0.10687022900763359	0.732824427480916	0.0	0.0	0.0
2017-08-17 18:14:13.325278	lat	lng	0.009765625	0.00439453125	1.0	2.6106870229007635	-0.04580152671755725	0.8244274809160306	0.0	0.0	0.0
2017-08-17 18:14:13.342555	lat	lng	0.010498046875	0.007568359375	1.003173828125	2.4122137404580153	-0.061068702290076333	0.732824427480916	0.0	0.0	0.0
2017-08-17 18:14:13.359747	lat	lng	0.005615234375	0.009521484375	0.9990234375	2.717557251908397	-0.21374045801526717	0.9465648854961832	0.0	0.0	0.0
2017-08-17 18:14:13.376938	lat	lng	0.008544921875	0.008056640625	0.997802734375	2.366412213740458	-0.1984732824427481	0.6564885496183206	0.0	0.0	0.0
2017-08-17 18:14:13.394667	lat	lng	0.001220703125	0.006591796875	0.99365234375	2.6259541984732824	-0.10687022900763359	0.8396946564885496	0.0	0.0	0.0
2017-08-17 18:14:13.411391	lat	lng	-0.001708984375	0.005859375	0.994140625	2.4580152671755724	-0.13740458015267176	0.5190839694656488	0.0	0.0	0.0
2017-08-17 18:14:13.428775	lat	lng	0.005126953125	0.0087890625	0.999267578125	2.4885496183206106	-0.10687022900763359	0.7938931297709924	0.0	0.0	0.0
2017-08-17 18:14:13.445790	lat	lng	0.004638671875	0.00439453125	1.00048828125	2.3969465648854964	-0.0916030534351145	0.732824427480916	0.0	0.0	0.0
2017-08-17 18:14:13.463304	lat	lng	0.00634765625	0.000732421875	1.001953125	2.564885496183206	-0.21374045801526717	0.7480916030534351	0.0	0.0	0.0
2017-08-17 18:14:13.480027	lat	lng	0.0068359375	0.004150390625	1.003662109375	2.519083969465649	-0.10687022900763359	0.5648854961832062	0.0	0.0	0.0
2017-08-17 18:14:13.497409	lat	lng	0.010498046875	0.0068359375	1.001220703125	2.549618320610687	-0.16793893129770993	0.7175572519083969	0.0	0.0	0.0
2017-08-17 18:14:13.514099	lat	lng	0.006103515625	0.0068359375	0.99853515625	2.595419847328244	-0.183206106870229	0.6870229007633588	0.0	0.0	0.0
2017-08-17 18:14:13.531456	lat	lng	0.003173828125	0.010986328125	0.9970703125	2.6717557251908395	-0.061068702290076333	0.6870229007633588	0.0	0.0	0.0
2017-08-17 18:14:13.548131	lat	lng	0.00439453125	0.009033203125	1.0029296875	2.595419847328244	0.030534351145038167	0.8091603053435115	0.0	0.0	0.0
2017-08-17 18:14:13.565768	lat	lng	0.00634765625	0.009033203125	1.000244140625	2.4580152671755724	-0.33587786259541985	0.916030534351145	0.0	0.0	0.0
2017-08-17 18:14:13.582524	lat	lng	0.009033203125	0.00732421875	1.0029296875	2.381679389312977	-0.366412213740458	0.732824427480916	0.0	0.0	0.0
2017-08-17 18:14:13.600044	lat	lng	0.00830078125	0.00634765625	0.997802734375	2.717557251908397	-0.15267175572519084	0.8244274809160306	0.0	0.0	0.0
2017-08-17 18:14:13.617416	lat	lng	0.005126953125	0.0087890625	1.00244140625	2.1374045801526718	-0.183206106870229	0.8396946564885496	0.0	0.0	0.0
2017-08-17 18:14:13.634884	lat	lng	-0.000244140625	0.00732421875	0.995361328125	2.519083969465649	-0.07633587786259542	0.7175572519083969	0.0	0.0	0.0
2017-08-17 18:14:13.652501	lat	lng	0.002197265625	0.00830078125	0.99755859375	2.4580152671755724	-0.04580152671755725	0.8244274809160306	0.0	0.0	0.0
2017-08-17 18:14:13.670288	lat	lng	0.004150390625	0.005615234375	1.0048828125	2.6106870229007635	-0.32061068702290074	0.7633587786259542	0.0	0.0	0.0
2017-08-17 18:14:13.688628	lat	lng	0.0048828125	0.0087890625	1.004150390625	2.564885496183206	-0.1984732824427481	0.7022900763358778	0.0	0.0	0.0
2017-08-17 18:14:13.706558	lat	lng	0.0078125	0.009765625	1.0078125	2.427480916030534	-0.12213740458015267	0.6870229007633588	0.0	0.0	0.0
2017-08-17 18:14:13.724628	lat	lng	0.005859375	0.006591796875	0.996826171875	2.763358778625954	-0.13740458015267176	0.6870229007633588	0.0	0.0	0.0
2017-08-17 18:14:13.742334	lat	lng	0.0029296875	0.0087890625	1.001220703125	2.50381679389313	0.12213740458015267	0.732824427480916	0.0	0.0	0.0
2017-08-17 18:14:13.759977	lat	lng	0.006103515625	0.001953125	0.99658203125	2.50381679389313	-0.15267175572519084	0.6564885496183206	0.0	0.0	0.0
2017-08-17 18:14:13.777879	lat	lng	0.007568359375	0.007568359375	0.974853515625	2.4427480916030535	-0.10687022900763359	0.9007633587786259	0.0	0.0	0.0
2017-08-17 18:14:13.795655	lat	lng	0.001708984375	0.010986328125	1.00244140625	2.351145038167939	-3.9083969465648853	0.6870229007633588	0.0	0.0	0.0
2017-08-17 18:14:13.818409	lat	lng	0.003173828125	0.00830078125	1.001220703125	2.50381679389313	0.0916030534351145	0.8091603053435115	0.0	0.0	0.0
2017-08-17 18:14:13.841907	lat	lng	-0.00048828125	0.00634765625	0.99951171875	2.5343511450381677	-0.366412213740458	0.8854961832061069	0.0	0.0	0.0
2017-08-17 18:14:13.867256	lat	lng	0.00830078125	0.008056640625	0.998291015625	2.4885496183206106	-0.12213740458015267	0.8091603053435115	0.0	0.0	0.0
2017-08-17 18:14:13.895619	lat	lng	0.004638671875	0.008544921875	1.000244140625	2.595419847328244	-0.2900763358778626	0.732824427480916	0.0	0.0	0.0
2017-08-17 18:14:13.916639	lat	lng	0.003662109375	0.0087890625	1.002685546875	2.4122137404580153	-0.21374045801526717	0.6259541984732825	0.0	0.0	0.0
2017-08-17 18:14:13.938006	lat	lng	0.005859375	0.006103515625	1.00439453125	2.595419847328244	-0.1984732824427481	0.7633587786259542	0.0	0.0	0.0
2017-08-17 18:14:13.958947	lat	lng	0.002685546875	0.0048828125	1.0078125	2.6717557251908395	-0.3969465648854962	0.7175572519083969	0.0	0.0	0.0
2017-08-17 18:14:13.980912	lat	lng	0.007568359375	0.00830078125	1.00244140625	2.519083969465649	-0.2595419847328244	0.7633587786259542	0.0	0.0	0.0
2017-08-17 18:14:14.001318	lat	lng	0.00537109375	0.003662109375	1.003173828125	2.5801526717557253	-0.13740458015267176	0.8549618320610687	0.0	0.0	0.0
2017-08-17 18:14:14.025217	lat	lng	0.001220703125	0.0048828125	0.999267578125	2.564885496183206	0.0	0.7633587786259542	0.0	0.0	0.0
2017-08-17 18:14:14.049162	lat	lng	0.00390625	0.008544921875	1.002197265625	2.4885496183206106	-0.2900763358778626	0.7633587786259542	0.0	0.0	0.0
2017-08-17 18:14:14.071305	lat	lng	0.000244140625	0.005859375	1.00390625	2.6412213740458017	-0.2900763358778626	0.9465648854961832	0.0	0.0	0.0
2017-08-17 18:14:14.108095	lat	lng	0.003662109375	0.010986328125	1.00390625	2.4580152671755724	-0.04580152671755725	0.916030534351145	0.0	0.0	0.0
2017-08-17 18:14:14.130761	lat	lng	0.0068359375	0.007080078125	0.9990234375	2.4885496183206106	-0.15267175572519084	0.7480916030534351	0.0	0.0	0.0
2017-08-17 18:14:14.153089	lat	lng	0.007080078125	0.007568359375	0.9951171875	2.717557251908397	-0.24427480916030533	0.916030534351145	0.0	0.0	0.0
2017-08-17 18:14:14.176966	lat	lng	0.00537109375	0.00537109375	0.997314453125	2.4732824427480917	-0.16793893129770993	0.8091603053435115	0.0	0.0	0.0
2017-08-17 18:14:14.199663	lat	lng	0.0068359375	0.010986328125	0.999267578125	2.427480916030534	-0.10687022900763359	0.8549618320610687	0.0	0.0	0.0
2017-08-17 18:14:14.218441	lat	lng	0.004638671875	0.0048828125	1.0087890625	2.6564885496183206	-0.33587786259541985	0.7938931297709924	0.0	0.0	0.0
2017-08-17 18:14:14.237133	lat	lng	0.003662109375	0.010986328125	1.001220703125	2.732824427480916	-0.183206106870229	0.8091603053435115	0.0	0.0	0.0
2017-08-17 18:14:14.254326	lat	lng	0.00439453125	0.0068359375	1.000732421875	2.854961832061069	-0.16793893129770993	0.8702290076335878	0.0	0.0	0.0
2017-08-17 18:14:14.271727	lat	lng	0.0009765625	0.007568359375	0.99853515625	2.564885496183206	-0.3053435114503817	0.7175572519083969	0.0	0.0	0.0
2017-08-17 18:14:14.294756	lat	lng	0.002685546875	0.0068359375	1.005615234375	2.549618320610687	-0.1984732824427481	1.0076335877862594	0.0	0.0	0.0
2017-08-17 18:14:14.311479	lat	lng	0.002197265625	0.010009765625	0.9970703125	2.4732824427480917	-0.07633587786259542	0.5801526717557252	0.0	0.0	0.0
2017-08-17 18:14:14.329062	lat	lng	0.0048828125	0.008544921875	1.0048828125	2.519083969465649	-0.2748091603053435	0.8244274809160306	0.0	0.0	0.0
2017-08-17 18:14:14.345882	lat	lng	0.008056640625	0.005126953125	1.0	2.4427480916030535	-0.04580152671755725	0.6564885496183206	0.0	0.0	0.0
2017-08-17 18:14:14.363617	lat	lng	0.004150390625	0.00634765625	1.00537109375	2.5801526717557253	-0.22900763358778625	0.9618320610687023	0.0	0.0	0.0
2017-08-17 18:14:14.386066	lat	lng	0.006103515625	0.009521484375	1.002197265625	2.5801526717557253	-0.07633587786259542	0.7480916030534351	0.0	0.0	0.0
2017-08-17 18:14:14.403039	lat	lng	0.00341796875	0.0068359375	0.995361328125	2.6564885496183206	0.030534351145038167	0.6870229007633588	0.0	0.0	0.0
2017-08-17 18:14:14.420000	lat	lng	0.004638671875	0.00830078125	1.0029296875	2.351145038167939	0.0	0.7022900763358778	0.0	0.0	0.0
2017-08-17 18:14:14.437323	lat	lng	0.005859375	0.01171875	0.994384765625	2.6106870229007635	-0.2900763358778626	0.8091603053435115	0.0	0.0	0.0
2017-08-17 18:14:14.454493	lat	lng	0.005126953125	0.010498046875	1.001220703125	2.687022900763359	-0.1984732824427481	0.8549618320610687	0.0	0.0	0.0
2017-08-17 18:14:14.472203	lat	lng	0.002197265625	0.00732421875	1.007080078125	2.549618320610687	-0.07633587786259542	0.7938931297709924	0.0	0.0	0.0
2017-08-17 18:14:14.493566	lat	lng	0.009033203125	0.00927734375	1.005615234375	2.6259541984732824	-0.2748091603053435	0.6412213740458015	0.0	0.0	0.0
2017-08-17 18:14:14.510871	lat	lng	0.0068359375	0.00830078125	1.005126953125	2.8091603053435112	-0.13740458015267176	0.8244274809160306	0.0	0.0	0.0
2017-08-17 18:14:14.528879	lat	lng	0.003173828125	0.010986328125	1.002685546875	1.8473282442748091	-0.7022900763358778	1.083969465648855	0.0	0.0	0.0
2017-08-17 18:14:14.546183	lat	lng	-0.015869140625	0.030029296875	1.00048828125	0.8396946564885496	-1.1908396946564885	-0.8702290076335878	0.0	0.0	0.0
2017-08-17 18:14:14.563850	lat	lng	0.01904296875	-0.06103515625	0.998046875	1.1908396946564885	-0.8091603053435115	5.770992366412214	0.0	0.0	0.0
2017-08-17 18:14:14.580797	lat	lng	-0.005859375	-0.0146484375	1.00146484375	1.6488549618320612	0.12213740458015267	6.67175572519084	0.0	0.0	0.0
2017-08-17 18:14:14.599467	lat	lng	0.02490234375	-0.009033203125	1.02880859375	3.1297709923664123	7.083969465648855	7.801526717557252	0.0	0.0	0.0
2017-08-17 18:14:14.616642	lat	lng	-0.013916015625	0.003662109375	1.07373046875	3.2061068702290076	41.954198473282446	8.427480916030534	0.0	0.0	0.0
2017-08-17 18:14:14.642597	lat	lng	-0.021728515625	0.000244140625	1.15380859375	-4.580152671755725	-11.755725190839694	0.13740458015267176	0.0	0.0	0.0
2017-08-17 18:14:14.660203	lat	lng	0.0341796875	0.0126953125	1.123779296875	-15.32824427480916	-42.29007633587786	6.473282442748092	0.0	0.0	0.0
2017-08-17 18:14:14.678196	lat	lng	0.01025390625	0.020751953125	1.047119140625	-10.549618320610687	-50.74809160305343	5.022900763358779	0.0	0.0	0.0
2017-08-17 18:14:14.695336	lat	lng	0.042724609375	0.029541015625	1.009521484375	-5.603053435114504	-50.152671755725194	7.435114503816794	0.0	0.0	0.0
2017-08-17 18:14:14.712707	lat	lng	0.0478515625	0.02294921875	0.996826171875	-1.0687022900763359	-52.778625954198475	8.244274809160306	0.0	0.0	0.0
2017-08-17 18:14:14.731689	lat	lng	0.050048828125	0.0068359375	1.001220703125	4.625954198473282	-50.717557251908396	8.549618320610687	0.0	0.0	0.0
2017-08-17 18:14:14.749241	lat	lng	0.092529296875	0.020751953125	1.0390625	11.83206106870229	-53.49618320610687	7.297709923664122	0.0	0.0	0.0
2017-08-17 18:14:14.766741	lat	lng	0.106201171875	0.025390625	1.03955078125	16.82442748091603	-64.6412213740458	7.236641221374046	0.0	0.0	0.0
2017-08-17 18:14:14.783126	lat	lng	0.106201171875	0.025390625	1.020751953125	19.34351145038168	-70.67175572519083	9.511450381679388	0.0	0.0	0.0
2017-08-17 18:14:14.799689	lat	lng	0.138916015625	0.027587890625	1.00244140625	32.412213740458014	-79.96946564885496	7.236641221374046	0.0	0.0	0.0
2017-08-17 18:14:14.816646	lat	lng	0.18408203125	0.04931640625	1.0068359375	44.656488549618324	-86.22900763358778	5.00763358778626	0.0	0.0	0.0
2017-08-17 18:14:14.833569	lat	lng	0.254150390625	0.01318359375	1.048583984375	55.343511450381676	-95.32824427480917	7.206106870229007	0.0	0.0	0.0
2017-08-17 18:14:14.851378	lat	lng	0.263916015625	0.081298828125	0.99462890625	56.68702290076336	-109.2824427480916	15.755725190839694	0.0	0.0	0.0
2017-08-17 18:14:14.874633	lat	lng	0.271728515625	0.072265625	0.956298828125	61.587786259541986	-105.63358778625954	21.66412213740458	0.0	0.0	0.0
2017-08-17 18:14:14.891896	lat	lng	0.259765625	0.064208984375	0.993408203125	57.45038167938932	-95.48091603053435	23.328244274809162	0.0	0.0	0.0
2017-08-17 18:14:14.908901	lat	lng	0.28564453125	0.076904296875	0.979248046875	50.67175572519084	-91.1145038167939	12.946564885496183	0.0	0.0	0.0
2017-08-17 18:14:14.929771	lat	lng	0.37841796875	0.105712890625	0.97314453125	42.47328244274809	-81.63358778625954	13.572519083969466	0.0	0.0	0.0
2017-08-17 18:14:14.951730	lat	lng	0.451904296875	0.13623046875	0.9560546875	60.213740458015266	-115.58778625954199	12.045801526717558	0.0	0.0	0.0
2017-08-17 18:14:14.974201	lat	lng	0.438232421875	0.162109375	0.879638671875	63.908396946564885	-116.83969465648855	18.732824427480917	0.0	0.0	0.0
2017-08-17 18:14:14.997999	lat	lng	0.408935546875	0.105224609375	0.891845703125	55.847328244274806	-103.52671755725191	18.427480916030536	0.0	0.0	0.0
2017-08-17 18:14:15.019241	lat	lng	0.4443359375	0.136474609375	0.891845703125	40.47328244274809	-89.7557251908397	13.816793893129772	0.0	0.0	0.0
2017-08-17 18:14:15.041465	lat	lng	0.54345703125	0.194091796875	0.871337890625	38.99236641221374	-96.03053435114504	9.908396946564885	0.0	0.0	0.0
2017-08-17 18:14:15.064987	lat	lng	0.57666015625	0.18994140625	0.79541015625	55.282442748091604	-107.1145038167939	7.358778625954199	0.0	0.0	0.0
2017-08-17 18:14:15.088130	lat	lng	0.5849609375	0.21826171875	0.766845703125	56.274809160305345	-106.30534351145039	10.763358778625955	0.0	0.0	0.0
2017-08-17 18:14:15.112526	lat	lng	0.582763671875	0.185791015625	0.765380859375	47.69465648854962	-92.09160305343511	14.259541984732824	0.0	0.0	0.0
2017-08-17 18:14:15.141911	lat	lng	0.601806640625	0.204833984375	0.70166015625	30.30534351145038	-74.80916030534351	14.610687022900763	0.0	0.0	0.0
2017-08-17 18:14:15.163869	lat	lng	0.638671875	0.19287109375	0.697021484375	22.3206106870229	-69.87786259541984	12.030534351145038	0.0	0.0	0.0
2017-08-17 18:14:15.191013	lat	lng	0.68359375	0.213623046875	0.669189453125	21.923664122137403	-57.70992366412214	11.938931297709924	0.0	0.0	0.0
2017-08-17 18:14:15.213733	lat	lng	0.712890625	0.22509765625	0.676025390625	14.229007633587786	-58.54961832061068	19.52671755725191	0.0	0.0	0.0
2017-08-17 18:14:15.232763	lat	lng	0.68359375	0.183349609375	0.689697265625	15.786259541984732	-65.41984732824427	13.114503816793894	0.0	0.0	0.0
2017-08-17 18:14:15.249671	lat	lng	0.6982421875	0.2099609375	0.6123046875	6.809160305343512	-58.458015267175576	17.450381679389313	0.0	0.0	0.0
2017-08-17 18:14:15.267753	lat	lng	0.734130859375	0.212646484375	0.615478515625	12.13740458015267	-54.12213740458015	15.374045801526718	0.0	0.0	0.0
2017-08-17 18:14:15.284458	lat	lng	0.7041015625	0.172607421875	0.619384765625	12.625954198473282	-62.961832061068705	15.236641221374045	0.0	0.0	0.0
2017-08-17 18:14:15.301604	lat	lng	0.69873046875	0.173583984375	0.56884765625	15.16030534351145	-58.79389312977099	8.183206106870228	0.0	0.0	0.0
2017-08-17 18:14:15.318456	lat	lng	0.76611328125	0.219482421875	0.56640625	12.122137404580153	-43.603053435114504	6.916030534351145	0.0	0.0	0.0
2017-08-17 18:14:15.335858	lat	lng	0.808837890625	0.235107421875	0.59375	12.396946564885496	-52.83969465648855	7.3893129770992365	0.0	0.0	0.0
2017-08-17 18:14:15.352618	lat	lng	0.80810546875	0.255615234375	0.48486328125	6.33587786259542	-48.6412213740458	13.923664122137405	0.0	0.0	0.0
2017-08-17 18:14:15.369906	lat	lng	0.789306640625	0.226318359375	0.488525390625	10.290076335877863	-35.89312977099237	15.98473282442748	0.0	0.0	0.0
2017-08-17 18:14:15.387288	lat	lng	0.807861328125	0.223876953125	0.486572265625	8.01526717557252	-26.18320610687023	20.16793893129771	0.0	0.0	0.0
2017-08-17 18:14:15.405688	lat	lng	0.82470703125	0.2275390625	0.512939453125	12.16793893129771	-26.427480916030536	19.51145038167939	0.0	0.0	0.0
2017-08-17 18:14:15.423148	lat	lng	0.8017578125	0.2041015625	0.5078125	1.4198473282442747	-18.931297709923665	23.755725190839694	0.0	0.0	0.0
2017-08-17 18:14:15.441255	lat	lng	0.771728515625	0.19287109375	0.48779296875	-2.16793893129771	-8.473282442748092	21.633587786259543	0.0	0.0	0.0
2017-08-17 18:14:15.458784	lat	lng	0.788818359375	0.174560546875	0.5107421875	2.0	-4.183206106870229	15.32824427480916	0.0	0.0	0.0
2017-08-17 18:14:15.477992	lat	lng	0.82568359375	0.3046875	0.551513671875	-5.6183206106870225	-71.00763358778626	17.770992366412212	0.0	0.0	0.0
2017-08-17 18:14:15.495663	lat	lng	0.86474609375	0.185546875	0.487548828125	-7.541984732824427	-12.595419847328245	22.65648854961832	0.0	0.0	0.0
2017-08-17 18:14:15.514202	lat	lng	0.7978515625	0.12451171875	0.443115234375	-17.221374045801525	-16.015267175572518	23.84732824427481	0.0	0.0	0.0
2017-08-17 18:14:15.536022	lat	lng	0.87646484375	0.112548828125	0.46484375	-12.793893129770993	-10.213740458015268	12.106870229007633	0.0	0.0	0.0
2017-08-17 18:14:15.553939	lat	lng	0.6337890625	0.123291015625	0.437744140625	-22.35114503816794	-5.251908396946565	32.900763358778626	0.0	0.0	0.0
2017-08-17 18:14:15.571084	lat	lng	0.92578125	0.275390625	0.509765625	-20.412213740458014	-25.81679389312977	15.86259541984733	0.0	0.0	0.0
2017-08-17 18:14:15.588033	lat	lng	0.797607421875	0.191162109375	0.469970703125	-40.916030534351144	-98.18320610687023	28.9618320610687	0.0	0.0	0.0
2017-08-17 18:14:15.605638	lat	lng	1.0458984375	0.160888671875	0.539306640625	-36.94656488549618	-104.73282442748092	20.50381679389313	0.0	0.0	0.0
2017-08-17 18:14:15.622206	lat	lng	1.262451171875	-0.217529296875	0.564208984375	7.709923664122138	-41.55725190839695	101.29770992366412	0.0	0.0	0.0
2017-08-17 18:14:15.639491	lat	lng	1.025634765625	0.175537109375	0.48876953125	32.29007633587786	-31.374045801526716	143.12977099236642	0.0	0.0	0.0
2017-08-17 18:14:15.656384	lat	lng	0.898193359375	0.316162109375	0.45849609375	-0.33587786259541985	-8.458015267175572	36.2442748091603	0.0	0.0	0.0
2017-08-17 18:14:15.673771	lat	lng	0.9599609375	0.00439453125	0.471923828125	-9.84732824427481	-32.091603053435115	33.038167938931295	0.0	0.0	0.0
2017-08-17 18:14:15.690529	lat	lng	0.93701171875	0.06884765625	0.4091796875	-9.389312977099237	-59.37404580152672	45.25190839694657	0.0	0.0	0.0
2017-08-17 18:14:15.707834	lat	lng	0.889892578125	0.01904296875	0.4052734375	-15.435114503816793	-73.90839694656489	28.900763358778626	0.0	0.0	0.0
2017-08-17 18:14:15.724682	lat	lng	0.965087890625	0.00830078125	0.396484375	-21.81679389312977	-88.51908396946565	37.038167938931295	0.0	0.0	0.0
2017-08-17 18:14:15.741614	lat	lng	0.999755859375	-0.013916015625	0.375732421875	-27.69465648854962	-96.56488549618321	30.198473282442748	0.0	0.0	0.0
2017-08-17 18:14:15.759000	lat	lng	0.971923828125	-0.052734375	0.32275390625	-33.587786259541986	-101.22137404580153	39.465648854961835	0.0	0.0	0.0
2017-08-17 18:14:15.776329	lat	lng	0.97900390625	-0.056884765625	0.270263671875	-34.29007633587786	-95.49618320610686	43.541984732824424	0.0	0.0	0.0
2017-08-17 18:14:15.794443	lat	lng	0.98974609375	-0.034423828125	0.261962890625	-32.85496183206107	-102.12213740458016	43.12977099236641	0.0	0.0	0.0
2017-08-17 18:14:15.812772	lat	lng	0.982666015625	-0.063720703125	0.273193359375	-35.16030534351145	-108.79389312977099	37.3587786259542	0.0	0.0	0.0
2017-08-17 18:14:15.830816	lat	lng	1.005126953125	-0.115478515625	0.2392578125	-23.709923664122137	-104.91603053435115	39.847328244274806	0.0	0.0	0.0
2017-08-17 18:14:15.848937	lat	lng	0.9794921875	-0.07763671875	0.1806640625	-21.984732824427482	-101.48091603053435	35.37404580152672	0.0	0.0	0.0
2017-08-17 18:14:15.866692	lat	lng	0.99267578125	-0.100830078125	0.142578125	-20.12213740458015	-94.25954198473282	30.732824427480917	0.0	0.0	0.0
2017-08-17 18:14:15.885422	lat	lng	1.00927734375	-0.09423828125	0.116455078125	-20.15267175572519	-89.74045801526718	35.83206106870229	0.0	0.0	0.0
2017-08-17 18:14:15.903143	lat	lng	0.91552734375	-0.1044921875	0.03173828125	-25.480916030534353	-101.98473282442748	42.62595419847328	0.0	0.0	0.0
2017-08-17 18:14:15.928333	lat	lng	0.808837890625	-0.166015625	-0.12890625	-50.67175572519084	-160.3969465648855	67.38931297709924	0.0	0.0	0.0
2017-08-17 18:14:15.958703	lat	lng	1.048583984375	-0.2021484375	-0.13037109375	-33.81679389312977	-175.31297709923663	83.78625954198473	0.0	0.0	0.0
2017-08-17 18:14:15.980456	lat	lng	1.037109375	-0.159912109375	-0.13623046875	-31.572519083969464	-158.0	67.70992366412214	0.0	0.0	0.0
2017-08-17 18:14:16.003434	lat	lng	1.0234375	-0.148681640625	-0.087890625	5.190839694656488	-98.25954198473282	29.572519083969464	0.0	0.0	0.0
2017-08-17 18:14:16.025198	lat	lng	0.861083984375	-0.238525390625	-0.18017578125	1.7099236641221374	-92.68702290076335	38.70229007633588	0.0	0.0	0.0
2017-08-17 18:14:16.048798	lat	lng	0.896484375	-0.314208984375	-0.28076171875	3.450381679389313	-100.18320610687023	57.908396946564885	0.0	0.0	0.0
2017-08-17 18:14:16.070865	lat	lng	0.93701171875	-0.216796875	-0.29833984375	-4.916030534351145	-103.02290076335878	47.81679389312977	0.0	0.0	0.0
2017-08-17 18:14:16.093772	lat	lng	0.82421875	-0.314453125	-0.42431640625	-12.702290076335878	-105.49618320610686	40.18320610687023	0.0	0.0	0.0
2017-08-17 18:14:16.116773	lat	lng	0.8876953125	-0.282470703125	-0.39404296875	-2.2900763358778624	-91.90839694656489	43.63358778625954	0.0	0.0	0.0
2017-08-17 18:14:16.144955	lat	lng	0.886962890625	-0.299072265625	-0.390380859375	-7.038167938931298	-82.93129770992367	57.465648854961835	0.0	0.0	0.0
2017-08-17 18:14:16.169118	lat	lng	0.79931640625	-0.282958984375	-0.440673828125	-6.412213740458015	-81.6030534351145	59.41984732824427	0.0	0.0	0.0
2017-08-17 18:14:16.191133	lat	lng	0.85791015625	-0.3525390625	-0.457763671875	-10.763358778625955	-79.87786259541984	65.70992366412214	0.0	0.0	0.0
2017-08-17 18:14:16.213293	lat	lng	0.84765625	-0.34228515625	-0.492431640625	-11.526717557251908	-65.46564885496183	65.98473282442748	0.0	0.0	0.0
2017-08-17 18:14:16.233997	lat	lng	0.791015625	-0.347900390625	-0.5146484375	-12.595419847328245	-53.93893129770992	70.13740458015268	0.0	0.0	0.0
2017-08-17 18:14:16.251798	lat	lng	0.732421875	-0.4033203125	-0.56640625	-12.778625954198473	-45.57251908396947	83.37404580152672	0.0	0.0	0.0
2017-08-17 18:14:16.282271	lat	lng	0.762451171875	-0.481201171875	-0.56689453125	-12.320610687022901	-47.38931297709924	105.83206106870229	0.0	0.0	0.0
2017-08-17 18:14:16.300511	lat	lng	0.75537109375	-0.41943359375	-0.601318359375	-8.198473282442748	-45.099236641221374	107.6793893129771	0.0	0.0	0.0
2017-08-17 18:14:16.319903	lat	lng	0.76318359375	-0.42822265625	-0.607421875	-10.778625954198473	-54.961832061068705	97.83206106870229	0.0	0.0	0.0
2017-08-17 18:14:16.338632	lat	lng	0.7294921875	-0.4951171875	-0.5986328125	-16.30534351145038	-61.20610687022901	97.48091603053435	0.0	0.0	0.0
2017-08-17 18:14:16.356740	lat	lng	0.70068359375	-0.480224609375	-0.61083984375	-18.610687022900763	-58.83969465648855	95.16030534351145	0.0	0.0	0.0
2017-08-17 18:14:16.373649	lat	lng	0.64208984375	-0.513916015625	-0.60498046875	-20.50381679389313	-59.404580152671755	93.58778625954199	0.0	0.0	0.0
2017-08-17 18:14:16.391232	lat	lng	0.556884765625	-0.498779296875	-0.6259765625	-22.595419847328245	-58.595419847328245	96.79389312977099	0.0	0.0	0.0
2017-08-17 18:14:16.408011	lat	lng	0.548583984375	-0.577880859375	-0.65966796875	-29.099236641221374	-57.16030534351145	106.21374045801527	0.0	0.0	0.0
2017-08-17 18:14:16.425366	lat	lng	0.51806640625	-0.594482421875	-0.6708984375	-29.236641221374047	-56.62595419847328	114.56488549618321	0.0	0.0	0.0
2017-08-17 18:14:16.442574	lat	lng	0.4892578125	-0.55712890625	-0.68994140625	-24.900763358778626	-58.595419847328245	120.07633587786259	0.0	0.0	0.0
2017-08-17 18:14:16.460748	lat	lng	0.4033203125	-0.46142578125	-0.621337890625	-22.83969465648855	-63.725190839694655	105.66412213740458	0.0	0.0	0.0
2017-08-17 18:14:16.482245	lat	lng	0.343505859375	-0.481201171875	-0.66162109375	-29.557251908396946	-52.85496183206107	69.72519083969466	0.0	0.0	0.0
2017-08-17 18:14:16.498826	lat	lng	0.341064453125	-0.619140625	-0.720703125	-34.778625954198475	-50.99236641221374	76.06106870229007	0.0	0.0	0.0
2017-08-17 18:14:16.516432	lat	lng	0.3486328125	-0.62548828125	-0.745849609375	-29.053435114503817	-52.916030534351144	82.10687022900764	0.0	0.0	0.0
2017-08-17 18:14:16.533780	lat	lng	0.3486328125	-0.617919921875	-0.74169921875	-27.64885496183206	-54.97709923664122	94.80916030534351	0.0	0.0	0.0
2017-08-17 18:14:16.550732	lat	lng	0.357666015625	-0.61669921875	-0.728759765625	-29.358778625954198	-54.47328244274809	101.43511450381679	0.0	0.0	0.0
2017-08-17 18:14:16.568031	lat	lng	0.352783203125	-0.611572265625	-0.724853515625	-26.396946564885496	-58.79389312977099	107.6030534351145	0.0	0.0	0.0
2017-08-17 18:14:16.585248	lat	lng	0.2939453125	-0.51171875	-0.68603515625	-23.862595419847327	-58.29007633587786	111.2824427480916	0.0	0.0	0.0
2017-08-17 18:14:16.603488	lat	lng	0.21728515625	-0.500244140625	-0.73291015625	-25.14503816793893	-49.49618320610687	99.69465648854961	0.0	0.0	0.0
2017-08-17 18:14:16.620509	lat	lng	0.129150390625	-0.53125	-0.790771484375	-25.419847328244273	-41.38931297709924	87.09923664122137	0.0	0.0	0.0
2017-08-17 18:14:16.637612	lat	lng	0.049560546875	-0.58203125	-0.8427734375	-20.137404580152673	-41.083969465648856	90.21374045801527	0.0	0.0	0.0
2017-08-17 18:14:16.655330	lat	lng	-0.00732421875	-0.59326171875	-0.879150390625	-16.290076335877863	-53.603053435114504	120.61068702290076	0.0	0.0	0.0
2017-08-17 18:14:16.672333	lat	lng	0.046875	-0.513671875	-0.81494140625	-10.335877862595419	-63.37404580152672	121.70992366412214	0.0	0.0	0.0
2017-08-17 18:14:16.689453	lat	lng	0.073486328125	-0.523193359375	-0.79345703125	-14.244274809160306	-64.51908396946565	109.40458015267176	0.0	0.0	0.0
2017-08-17 18:14:16.706460	lat	lng	0.049072265625	-0.529052734375	-0.806640625	-17.17557251908397	-64.18320610687023	103.87786259541984	0.0	0.0	0.0
2017-08-17 18:14:16.723433	lat	lng	0.052001953125	-0.52294921875	-0.810791015625	-14.595419847328245	-52.54961832061068	82.83969465648855	0.0	0.0	0.0
2017-08-17 18:14:16.740418	lat	lng	-0.020751953125	-0.5234375	-0.80126953125	-12.564885496183207	-41.86259541984733	70.50381679389314	0.0	0.0	0.0
2017-08-17 18:14:16.758002	lat	lng	-0.12353515625	-0.4951171875	-0.808837890625	-11.786259541984732	-40.99236641221374	67.58778625954199	0.0	0.0	0.0
2017-08-17 18:14:16.775097	lat	lng	-0.151611328125	-0.538330078125	-0.82080078125	-11.526717557251908	-51.93893129770992	90.85496183206106	0.0	0.0	0.0
2017-08-17 18:14:16.793066	lat	lng	-0.138916015625	-0.522705078125	-0.836181640625	-8.15267175572519	-49.70992366412214	100.19847328244275	0.0	0.0	0.0
2017-08-17 18:14:16.809777	lat	lng	-0.15966796875	-0.50732421875	-0.857666015625	-5.297709923664122	-45.23664122137404	90.3969465648855	0.0	0.0	0.0
2017-08-17 18:14:16.830033	lat	lng	-0.21044921875	-0.502197265625	-0.859130859375	-4.656488549618321	-39.25190839694657	79.81679389312977	0.0	0.0	0.0
2017-08-17 18:14:16.847175	lat	lng	-0.22607421875	-0.44921875	-0.83251953125	-2.1374045801526718	-38.70229007633588	64.16793893129771	0.0	0.0	0.0
2017-08-17 18:14:16.864415	lat	lng	-0.244873046875	-0.4521484375	-0.824462890625	-1.2366412213740459	-39.38931297709924	52.30534351145038	0.0	0.0	0.0
2017-08-17 18:14:16.881603	lat	lng	-0.276611328125	-0.505859375	-0.844482421875	0.07633587786259542	-43.51145038167939	51.05343511450382	0.0	0.0	0.0
2017-08-17 18:14:16.898255	lat	lng	-0.26123046875	-0.55908203125	-0.838623046875	4.0458015267175576	-48.70229007633588	63.12977099236641	0.0	0.0	0.0
2017-08-17 18:14:16.915320	lat	lng	-0.2421875	-0.50927734375	-0.824951171875	9.053435114503817	-45.02290076335878	61.221374045801525	0.0	0.0	0.0
