Time	Position_lat	Position_lng	Accelerometer_x	Accelerometer_y	Accelerometer_z	Gyroscope_x	Gyroscope_y	Gyroscope_z	Magnetometer_x	Magnetometer_y	Magnetometer_z
2017-08-17 18:04:11.368620	lat	lng	-0.98779296875	0.0205078125	-0.02099609375	2.717557251908397	-0.24427480916030533	1.1297709923664123	0.0	0.0	0.0
2017-08-17 18:04:11.399508	lat	lng	-0.989013671875	0.01806640625	-0.021728515625	2.6259541984732824	-0.2748091603053435	1.0381679389312977	0.0	0.0	0.0
2017-08-17 18:04:11.418471	lat	lng	-0.991455078125	0.017333984375	-0.0234375	2.7022900763358777	-0.16793893129770993	0.9312977099236641	0.0	0.0	0.0
2017-08-17 18:04:11.436642	lat	lng	-0.991455078125	0.019287109375	-0.02587890625	2.6564885496183206	-0.15267175572519084	1.0076335877862594	0.0	0.0	0.0
2017-08-17 18:04:11.460395	lat	lng	-0.992431640625	0.015380859375	-0.015380859375	2.6259541984732824	-0.24427480916030533	0.8396946564885496	0.0	0.0	0.0
2017-08-17 18:04:11.478640	lat	lng	-0.991943359375	0.01611328125	-0.01611328125	2.5801526717557253	-0.44274809160305345	0.8854961832061069	0.0	0.0	0.0
2017-08-17 18:04:11.496538	lat	lng	-0.990966796875	0.0146484375	-0.02099609375	2.8091603053435112	-0.10687022900763359	1.0687022900763359	0.0	0.0	0.0
2017-08-17 18:04:11.516356	lat	lng	-0.98974609375	0.02099609375	-0.01953125	2.5801526717557253	0.04580152671755725	1.1908396946564885	0.0	0.0	0.0
2017-08-17 18:04:11.540258	lat	lng	-0.993896484375	0.02099609375	-0.019287109375	2.381679389312977	-0.16793893129770993	0.6717557251908397	0.0	0.0	0.0
2017-08-17 18:04:11.560925	lat	lng	-0.992919921875	0.020263671875	-0.022705078125	2.6564885496183206	0.07633587786259542	1.0381679389312977	0.0	0.0	0.0
2017-08-17 18:04:11.582264	lat	lng	-0.9921875	0.017578125	-0.02001953125	2.564885496183206	0.10687022900763359	1.0687022900763359	0.0	0.0	0.0
2017-08-17 18:04:11.609277	lat	lng	-0.9892578125	0.02099609375	-0.0126953125	2.351145038167939	-0.12213740458015267	1.0687022900763359	0.0	0.0	0.0
2017-08-17 18:04:11.631086	lat	lng	-0.9921875	0.016845703125	-0.01513671875	2.427480916030534	-0.04580152671755725	1.083969465648855	0.0	0.0	0.0
2017-08-17 18:04:11.659591	lat	lng	-0.98974609375	0.020263671875	-0.02197265625	2.4122137404580153	0.16793893129770993	0.9465648854961832	0.0	0.0	0.0
2017-08-17 18:04:11.680863	lat	lng	-0.993896484375	0.0126953125	-0.022705078125	2.595419847328244	0.10687022900763359	0.9312977099236641	0.0	0.0	0.0
2017-08-17 18:04:11.703165	lat	lng	-0.991943359375	0.02001953125	-0.016845703125	2.4122137404580153	-0.3816793893129771	0.916030534351145	0.0	0.0	0.0
2017-08-17 18:04:11.724010	lat	lng	-0.990966796875	0.018310546875	-0.019775390625	2.564885496183206	0.183206106870229	1.1145038167938932	0.0	0.0	0.0
2017-08-17 18:04:11.746155	lat	lng	-0.99169921875	0.019775390625	-0.018798828125	2.4427480916030535	0.1984732824427481	1.099236641221374	0.0	0.0	0.0
2017-08-17 18:04:11.767504	lat	lng	-0.98974609375	0.019775390625	-0.017822265625	2.6106870229007635	0.015267175572519083	0.9923664122137404	0.0	0.0	0.0
2017-08-17 18:04:11.800496	lat	lng	-0.988525390625	0.021240234375	-0.026123046875	2.595419847328244	-0.1984732824427481	1.1145038167938932	0.0	0.0	0.0
2017-08-17 18:04:11.827881	lat	lng	-0.993408203125	0.017333984375	-0.020263671875	2.687022900763359	-0.549618320610687	1.0534351145038168	0.0	0.0	0.0
2017-08-17 18:04:11.849327	lat	lng	-0.98974609375	0.016357421875	-0.026123046875	2.5801526717557253	-0.3816793893129771	0.9618320610687023	0.0	0.0	0.0
2017-08-17 18:04:11.870003	lat	lng	-0.993896484375	0.016845703125	-0.016357421875	2.366412213740458	-0.0916030534351145	1.099236641221374	0.0	0.0	0.0
2017-08-17 18:04:11.891574	lat	lng	-0.98974609375	0.017578125	-0.027587890625	2.6717557251908395	0.07633587786259542	1.2366412213740459	0.0	0.0	0.0
2017-08-17 18:04:11.912979	lat	lng	-0.99072265625	0.01806640625	-0.01708984375	2.427480916030534	0.07633587786259542	0.7938931297709924	0.0	0.0	0.0
2017-08-17 18:04:11.933713	lat	lng	-0.9921875	0.017333984375	-0.015625	2.3969465648854964	0.015267175572519083	0.9618320610687023	0.0	0.0	0.0
2017-08-17 18:04:11.955546	lat	lng	-0.991943359375	0.021484375	-0.023193359375	2.564885496183206	0.061068702290076333	0.8702290076335878	0.0	0.0	0.0
2017-08-17 18:04:11.978241	lat	lng	-0.98876953125	0.021484375	-0.02294921875	2.595419847328244	-0.07633587786259542	0.9312977099236641	0.0	0.0	0.0
2017-08-17 18:04:12.001025	lat	lng	-0.991455078125	0.01904296875	-0.020751953125	2.519083969465649	-0.061068702290076333	1.1450381679389312	0.0	0.0	0.0
2017-08-17 18:04:12.022261	lat	lng	-0.989013671875	0.0205078125	-0.021240234375	2.4427480916030535	0.07633587786259542	1.1603053435114503	0.0	0.0	0.0
2017-08-17 18:04:12.045082	lat	lng	-0.99072265625	0.018310546875	-0.019287109375	2.6106870229007635	-0.32061068702290074	0.9923664122137404	0.0	0.0	0.0
2017-08-17 18:04:12.073665	lat	lng	-0.992431640625	0.020263671875	-0.019775390625	2.4427480916030535	-0.16793893129770993	1.0687022900763359	0.0	0.0	0.0
2017-08-17 18:04:12.096853	lat	lng	-0.988525390625	0.0166015625	-0.02099609375	2.7480916030534353	-0.22900763358778625	0.8854961832061069	0.0	0.0	0.0
2017-08-17 18:04:12.118236	lat	lng	-0.9912109375	0.019775390625	-0.01611328125	2.4885496183206106	-0.3969465648854962	1.083969465648855	0.0	0.0	0.0
2017-08-17 18:04:12.139797	lat	lng	-0.9921875	0.02001953125	-0.0185546875	2.50381679389313	-0.13740458015267176	0.9923664122137404	0.0	0.0	0.0
2017-08-17 18:04:12.160196	lat	lng	-0.99365234375	0.021728515625	-0.010498046875	2.4122137404580153	-0.12213740458015267	1.2366412213740459	0.0	0.0	0.0
2017-08-17 18:04:12.193701	lat	lng	-0.989990234375	0.019287109375	-0.016845703125	2.6259541984732824	-0.0916030534351145	0.9007633587786259	0.0	0.0	0.0
2017-08-17 18:04:12.216000	lat	lng	-0.98974609375	0.016845703125	-0.01904296875	2.7480916030534353	-0.10687022900763359	1.0229007633587786	0.0	0.0	0.0
2017-08-17 18:04:12.247366	lat	lng	-0.98779296875	0.0185546875	-0.024169921875	2.4885496183206106	-0.10687022900763359	1.0381679389312977	0.0	0.0	0.0
2017-08-17 18:04:12.270319	lat	lng	-0.991943359375	0.0185546875	-0.01513671875	2.4732824427480917	-0.030534351145038167	0.9312977099236641	0.0	0.0	0.0
2017-08-17 18:04:12.293216	lat	lng	-0.989013671875	0.016357421875	-0.020263671875	2.763358778625954	-0.24427480916030533	1.0229007633587786	0.0	0.0	0.0
2017-08-17 18:04:12.315955	lat	lng	-0.989990234375	0.020751953125	-0.0185546875	2.7938931297709924	-0.2900763358778626	0.9465648854961832	0.0	0.0	0.0
2017-08-17 18:04:12.338497	lat	lng	-0.99072265625	0.019287109375	-0.020263671875	2.4732824427480917	-0.2595419847328244	0.916030534351145	0.0	0.0	0.0
2017-08-17 18:04:12.361071	lat	lng	-0.990478515625	0.014404296875	-0.017578125	2.6412213740458017	-0.015267175572519083	1.1450381679389312	0.0	0.0	0.0
2017-08-17 18:04:12.383647	lat	lng	-0.990966796875	0.0185546875	-0.023681640625	2.6106870229007635	0.015267175572519083	0.9465648854961832	0.0	0.0	0.0
2017-08-17 18:04:12.406334	lat	lng	-0.98779296875	0.017578125	-0.019287109375	2.4732824427480917	0.2595419847328244	1.0534351145038168	0.0	0.0	0.0
2017-08-17 18:04:12.428941	lat	lng	-0.992431640625	0.01806640625	-0.015869140625	2.6717557251908395	0.2595419847328244	0.9618320610687023	0.0	0.0	0.0
2017-08-17 18:04:12.451521	lat	lng	-0.9912109375	0.02001953125	-0.01416015625	2.4885496183206106	0.1984732824427481	1.1297709923664123	0.0	0.0	0.0
2017-08-17 18:04:12.473927	lat	lng	-0.991943359375	0.017822265625	-0.0224609375	2.519083969465649	0.07633587786259542	1.0229007633587786	0.0	0.0	0.0
2017-08-17 18:04:12.496691	lat	lng	-0.991943359375	0.0185546875	-0.015625	2.549618320610687	-0.12213740458015267	1.0076335877862594	0.0	0.0	0.0
2017-08-17 18:04:12.519210	lat	lng	-0.987060546875	0.024658203125	-0.020263671875	2.5343511450381677	-0.04580152671755725	0.8702290076335878	0.0	0.0	0.0
2017-08-17 18:04:12.541919	lat	lng	-0.990966796875	0.021728515625	-0.02294921875	2.4580152671755724	0.22900763358778625	0.9618320610687023	0.0	0.0	0.0
2017-08-17 18:04:12.564440	lat	lng	-0.990478515625	0.01611328125	-0.01611328125	2.3969465648854964	-0.07633587786259542	1.0229007633587786	0.0	0.0	0.0
2017-08-17 18:04:12.587122	lat	lng	-0.9892578125	0.019287109375	-0.01953125	2.6412213740458017	0.2748091603053435	1.0534351145038168	0.0	0.0	0.0
2017-08-17 18:04:12.610911	lat	lng	-0.993896484375	0.0205078125	-0.0263671875	2.7022900763358777	-0.10687022900763359	0.9618320610687023	0.0	0.0	0.0
2017-08-17 18:04:12.632650	lat	lng	-0.992919921875	0.02001953125	-0.021484375	2.564885496183206	0.16793893129770993	0.8396946564885496	0.0	0.0	0.0
2017-08-17 18:04:12.653997	lat	lng	-0.994384765625	0.0166015625	-0.0185546875	2.549618320610687	0.1984732824427481	0.9312977099236641	0.0	0.0	0.0
2017-08-17 18:04:12.675548	lat	lng	-0.98974609375	0.01611328125	-0.02294921875	2.595419847328244	0.15267175572519084	0.916030534351145	0.0	0.0	0.0
2017-08-17 18:04:12.697028	lat	lng	-0.994384765625	0.016357421875	-0.02392578125	2.7480916030534353	-0.5801526717557252	1.1908396946564885	0.0	0.0	0.0
2017-08-17 18:04:12.718749	lat	lng	-0.98974609375	0.017333984375	-0.017333984375	2.4122137404580153	-0.3969465648854962	1.1450381679389312	0.0	0.0	0.0
2017-08-17 18:04:12.740306	lat	lng	-0.996826171875	0.0205078125	-0.025390625	2.5801526717557253	0.12213740458015267	1.0687022900763359	0.0	0.0	0.0
2017-08-17 18:04:12.761011	lat	lng	-0.988525390625	0.016845703125	-0.01611328125	2.549618320610687	0.3969465648854962	1.0076335877862594	0.0	0.0	0.0
2017-08-17 18:04:12.781674	lat	lng	-0.993896484375	0.015869140625	-0.021240234375	2.717557251908397	0.0	0.9770992366412213	0.0	0.0	0.0
2017-08-17 18:04:12.802387	lat	lng	-0.990966796875	0.018310546875	-0.023193359375	2.687022900763359	0.030534351145038167	1.083969465648855	0.0	0.0	0.0
2017-08-17 18:04:12.823136	lat	lng	-0.992431640625	0.021484375	-0.025390625	2.6106870229007635	-0.061068702290076333	1.083969465648855	0.0	0.0	0.0
2017-08-17 18:04:12.844200	lat	lng	-0.99365234375	0.01904296875	-0.021240234375	2.351145038167939	-0.183206106870229	0.9923664122137404	0.0	0.0	0.0
2017-08-17 18:04:12.865151	lat	lng	-0.995849609375	0.0146484375	-0.021240234375	2.6106870229007635	0.1984732824427481	0.7786259541984732	0.0	0.0	0.0
2017-08-17 18:04:12.886082	lat	lng	-0.9892578125	0.01416015625	-0.02099609375	2.5343511450381677	0.16793893129770993	1.1755725190839694	0.0	0.0	0.0
2017-08-17 18:04:12.906906	lat	lng	-0.98876953125	0.01220703125	-0.020263671875	2.6106870229007635	0.0916030534351145	1.1450381679389312	0.0	0.0	0.0
2017-08-17 18:04:12.927755	lat	lng	-0.988525390625	0.01904296875	-0.0166015625	2.595419847328244	0.5038167938931297	1.0381679389312977	0.0	0.0	0.0
2017-08-17 18:04:12.950391	lat	lng	-0.989013671875	0.019287109375	-0.022216796875	2.5343511450381677	0.3053435114503817	0.9465648854961832	0.0	0.0	0.0
2017-08-17 18:04:12.974422	lat	lng	-0.992919921875	0.019287109375	-0.01806640625	2.3206106870229006	0.015267175572519083	1.0076335877862594	0.0	0.0	0.0
2017-08-17 18:04:12.998357	lat	lng	-0.991943359375	0.017578125	-0.0087890625	2.5801526717557253	-0.42748091603053434	1.099236641221374	0.0	0.0	0.0
2017-08-17 18:04:13.022915	lat	lng	-0.9892578125	0.015869140625	-0.02392578125	2.351145038167939	0.04580152671755725	0.7786259541984732	0.0	0.0	0.0
2017-08-17 18:04:13.049028	lat	lng	-0.992919921875	0.018310546875	-0.02001953125	2.5343511450381677	0.48854961832061067	1.0534351145038168	0.0	0.0	0.0
2017-08-17 18:04:13.073710	lat	lng	-0.993408203125	0.016845703125	-0.021484375	2.427480916030534	0.5190839694656488	1.0534351145038168	0.0	0.0	0.0
2017-08-17 18:04:13.099187	lat	lng	-0.989013671875	0.021240234375	-0.021728515625	2.4885496183206106	-0.366412213740458	1.0229007633587786	0.0	0.0	0.0
2017-08-17 18:04:13.122484	lat	lng	-0.99267578125	0.0166015625	-0.017822265625	2.6564885496183206	-0.33587786259541985	1.0229007633587786	0.0	0.0	0.0
2017-08-17 18:04:13.153500	lat	lng	-0.988037109375	0.017333984375	-0.023193359375	2.4732824427480917	-0.04580152671755725	1.0076335877862594	0.0	0.0	0.0
2017-08-17 18:04:13.174034	lat	lng	-0.990234375	0.016845703125	-0.02099609375	2.687022900763359	0.32061068702290074	0.8549618320610687	0.0	0.0	0.0
2017-08-17 18:04:13.198974	lat	lng	-0.994140625	0.021240234375	-0.02685546875	2.564885496183206	3.877862595419847	0.9618320610687023	0.0	0.0	0.0
2017-08-17 18:04:13.219428	lat	lng	-0.9921875	0.021240234375	-0.00927734375	2.717557251908397	-0.32061068702290074	1.297709923664122	0.0	0.0	0.0
2017-08-17 18:04:13.247464	lat	lng	-0.98779296875	0.0185546875	-0.024658203125	2.4732824427480917	0.24427480916030533	1.2671755725190839	0.0	0.0	0.0
2017-08-17 18:04:13.270564	lat	lng	-0.986572265625	0.020263671875	-0.022705078125	2.549618320610687	-0.10687022900763359	0.8244274809160306	0.0	0.0	0.0
2017-08-17 18:04:13.293396	lat	lng	-0.992431640625	0.020263671875	-0.022216796875	2.6564885496183206	0.366412213740458	0.9923664122137404	0.0	0.0	0.0
2017-08-17 18:04:13.317445	lat	lng	-0.9912109375	0.0205078125	-0.02685546875	2.6412213740458017	0.24427480916030533	1.099236641221374	0.0	0.0	0.0
2017-08-17 18:04:13.339924	lat	lng	-0.988525390625	0.015869140625	-0.0185546875	2.4885496183206106	0.7022900763358778	0.916030534351145	0.0	0.0	0.0
2017-08-17 18:04:13.364195	lat	lng	-0.991943359375	0.02197265625	-0.026611328125	2.5343511450381677	0.5343511450381679	1.0687022900763359	0.0	0.0	0.0
2017-08-17 18:04:13.387117	lat	lng	-0.991455078125	0.0166015625	-0.0205078125	2.549618320610687	0.3511450381679389	1.0687022900763359	0.0	0.0	0.0
2017-08-17 18:04:13.411976	lat	lng	-0.9912109375	0.017578125	-0.01611328125	2.6564885496183206	0.3816793893129771	1.0687022900763359	0.0	0.0	0.0
2017-08-17 18:04:13.436925	lat	lng	-0.989013671875	0.015869140625	-0.019287109375	2.717557251908397	0.2900763358778626	0.9923664122137404	0.0	0.0	0.0
2017-08-17 18:04:13.459978	lat	lng	-0.9921875	0.01953125	-0.020263671875	2.6564885496183206	0.5038167938931297	0.8091603053435115	0.0	0.0	0.0
2017-08-17 18:04:13.482391	lat	lng	-0.990478515625	0.01904296875	-0.02197265625	2.7022900763358777	0.33587786259541985	1.099236641221374	0.0	0.0	0.0
2017-08-17 18:04:13.510082	lat	lng	-0.993896484375	0.02001953125	-0.0185546875	2.4732824427480917	-0.030534351145038167	1.0534351145038168	0.0	0.0	0.0
2017-08-17 18:04:13.533265	lat	lng	-0.9912109375	0.0234375	-0.029541015625	2.50381679389313	0.0916030534351145	0.8854961832061069	0.0	0.0	0.0
2017-08-17 18:04:13.555058	lat	lng	-0.992919921875	0.01611328125	-0.02490234375	2.50381679389313	-0.48854961832061067	1.0687022900763359	0.0	0.0	0.0
2017-08-17 18:04:13.578414	lat	lng	-0.991943359375	0.017578125	-0.021240234375	2.50381679389313	-1.0229007633587786	1.0381679389312977	0.0	0.0	0.0
2017-08-17 18:04:13.605587	lat	lng	-0.9912109375	0.019775390625	-0.0283203125	2.4122137404580153	-0.8549618320610687	0.9465648854961832	0.0	0.0	0.0
2017-08-17 18:04:13.627706	lat	lng	-0.993408203125	0.02099609375	-0.034912109375	2.50381679389313	-0.5954198473282443	1.0076335877862594	0.0	0.0	0.0
2017-08-17 18:04:13.658353	lat	lng	-0.991943359375	0.015869140625	-0.02001953125	2.3206106870229006	-0.4122137404580153	0.8702290076335878	0.0	0.0	0.0
2017-08-17 18:04:13.678687	lat	lng	-0.99169921875	0.01953125	-0.02001953125	2.6259541984732824	-0.10687022900763359	0.9770992366412213	0.0	0.0	0.0
2017-08-17 18:04:13.699462	lat	lng	-0.98828125	0.0205078125	-0.02001953125	2.3969465648854964	-0.21374045801526717	1.251908396946565	0.0	0.0	0.0
2017-08-17 18:04:13.720277	lat	lng	-0.990966796875	0.02001953125	-0.024169921875	2.427480916030534	-0.061068702290076333	1.0534351145038168	0.0	0.0	0.0
2017-08-17 18:04:13.740962	lat	lng	-0.989501953125	0.019287109375	-0.02587890625	2.564885496183206	0.061068702290076333	1.083969465648855	0.0	0.0	0.0
2017-08-17 18:04:13.761806	lat	lng	-0.994384765625	0.02001953125	-0.02490234375	2.564885496183206	-0.07633587786259542	0.9465648854961832	0.0	0.0	0.0
2017-08-17 18:04:13.782484	lat	lng	-0.995361328125	0.02294921875	-0.0185546875	2.4732824427480917	-0.22900763358778625	0.8702290076335878	0.0	0.0	0.0
2017-08-17 18:04:13.803155	lat	lng	-0.993408203125	0.019287109375	-0.015380859375	2.6259541984732824	-0.4732824427480916	1.1603053435114503	0.0	0.0	0.0
2017-08-17 18:04:13.823795	lat	lng	-0.990478515625	0.022216796875	-0.026123046875	2.6106870229007635	-0.15267175572519084	0.9618320610687023	0.0	0.0	0.0
2017-08-17 18:04:13.844442	lat	lng	-0.98974609375	0.0185546875	-0.03125	2.763358778625954	-0.9312977099236641	0.9007633587786259	0.0	0.0	0.0
2017-08-17 18:04:13.865329	lat	lng	-0.991943359375	0.0087890625	-0.021484375	5.374045801526718	-1.6488549618320612	0.8244274809160306	0.0	0.0	0.0
2017-08-17 18:04:13.886211	lat	lng	-0.991943359375	0.00244140625	-0.02734375	13.19083969465649	-3.068702290076336	1.099236641221374	0.0	0.0	0.0
2017-08-17 18:04:13.907137	lat	lng	-0.989013671875	0.0126953125	-0.027587890625	16.015267175572518	-2.427480916030534	0.9923664122137404	0.0	0.0	0.0
2017-08-17 18:04:13.927919	lat	lng	-0.981689453125	0.017333984375	-0.009033203125	16.641221374045802	0.2748091603053435	1.4045801526717556	0.0	0.0	0.0
2017-08-17 18:04:13.948692	lat	lng	-0.989990234375	0.030517578125	-0.01416015625	6.702290076335878	-0.4122137404580153	1.0229007633587786	0.0	0.0	0.0
2017-08-17 18:04:13.969495	lat	lng	-0.988525390625	0.019287109375	-0.010009765625	2.351145038167939	1.0076335877862594	1.2061068702290076	0.0	0.0	0.0
2017-08-17 18:04:13.990226	lat	lng	-0.990478515625	0.0185546875	-0.017822265625	2.549618320610687	1.2366412213740459	1.1297709923664123	0.0	0.0	0.0
2017-08-17 18:04:14.010874	lat	lng	-0.98828125	0.01904296875	-0.0263671875	2.4732824427480917	0.2595419847328244	1.0381679389312977	0.0	0.0	0.0
2017-08-17 18:04:14.031518	lat	lng	-0.991943359375	0.01904296875	-0.011474609375	2.4580152671755724	0.061068702290076333	1.1297709923664123	0.0	0.0	0.0
2017-08-17 18:04:14.052200	lat	lng	-0.992431640625	0.02294921875	-0.02783203125	2.6412213740458017	-0.549618320610687	1.099236641221374	0.0	0.0	0.0
2017-08-17 18:04:14.072997	lat	lng	-0.98779296875	0.018798828125	-0.019287109375	2.7938931297709924	-1.5114503816793894	0.9618320610687023	0.0	0.0	0.0
2017-08-17 18:04:14.093751	lat	lng	-0.992431640625	0.019775390625	-0.0185546875	2.4580152671755724	-1.4198473282442747	0.7938931297709924	0.0	0.0	0.0
2017-08-17 18:04:14.114864	lat	lng	-0.99072265625	0.013916015625	-0.01416015625	2.885496183206107	-1.3587786259541985	0.916030534351145	0.0	0.0	0.0
2017-08-17 18:04:14.135904	lat	lng	-0.994873046875	0.012451171875	-0.015869140625	6.33587786259542	-1.251908396946565	1.1908396946564885	0.0	0.0	0.0
2017-08-17 18:04:14.156745	lat	lng	-0.998779296875	0.014892578125	-0.00537109375	4.854961832061068	-4.2748091603053435	0.7938931297709924	0.0	0.0	0.0
2017-08-17 18:04:14.177568	lat	lng	-1.007080078125	0.034912109375	-0.029541015625	-0.10687022900763359	-9.709923664122137	1.0076335877862594	0.0	0.0	0.0
2017-08-17 18:04:14.198390	lat	lng	-0.9921875	0.008544921875	-0.00830078125	-4.396946564885496	-17.022900763358777	1.4198473282442747	0.0	0.0	0.0
2017-08-17 18:04:14.219224	lat	lng	-0.982177734375	-0.091552734375	0.1005859375	-8.763358778625955	-28.38167938931298	2.0	0.0	0.0	0.0
2017-08-17 18:04:14.240007	lat	lng	-1.050048828125	0.024658203125	0.0576171875	9.16030534351145	-50.35114503816794	6.213740458015267	0.0	0.0	0.0
2017-08-17 18:04:14.260699	lat	lng	-1.008056640625	0.013916015625	0.042724609375	25.49618320610687	-42.99236641221374	35.55725190839695	0.0	0.0	0.0
2017-08-17 18:04:14.281321	lat	lng	-1.09521484375	0.0380859375	0.023681640625	18.198473282442748	-41.19083969465649	66.77862595419847	0.0	0.0	0.0
2017-08-17 18:04:14.302036	lat	lng	-1.13232421875	0.07666015625	-0.042236328125	0.9007633587786259	-44.93129770992366	115.3587786259542	0.0	0.0	0.0
2017-08-17 18:04:14.322692	lat	lng	-1.15625	0.1591796875	-0.006103515625	-16.99236641221374	-60.12213740458015	173.40458015267177	0.0	0.0	0.0
2017-08-17 18:04:14.343397	lat	lng	-0.95751953125	0.293212890625	0.062255859375	-17.267175572519083	-65.32824427480917	210.70229007633588	0.0	0.0	0.0
2017-08-17 18:04:14.364521	lat	lng	-0.847900390625	0.2373046875	0.145263671875	-3.5877862595419847	-48.62595419847328	146.93129770992365	0.0	0.0	0.0
2017-08-17 18:04:14.400979	lat	lng	-0.927734375	0.337646484375	0.1943359375	15.816793893129772	-25.053435114503817	118.79389312977099	0.0	0.0	0.0
2017-08-17 18:04:14.424480	lat	lng	-0.758544921875	0.340576171875	0.2333984375	14.16793893129771	-54.80916030534351	50.93129770992366	0.0	0.0	0.0
2017-08-17 18:04:14.450911	lat	lng	-0.874267578125	0.37548828125	0.197265625	-3.2061068702290076	-33.541984732824424	24.900763358778626	0.0	0.0	0.0
2017-08-17 18:04:14.475200	lat	lng	-0.881591796875	0.35888671875	0.2763671875	-16.763358778625953	36.82442748091603	46.412213740458014	0.0	0.0	0.0
2017-08-17 18:04:14.501315	lat	lng	-0.835693359375	0.44775390625	0.22607421875	-9.664122137404581	101.89312977099236	73.55725190839695	0.0	0.0	0.0
2017-08-17 18:04:14.533805	lat	lng	-0.8427734375	0.665283203125	0.109375	8.412213740458014	165.61832061068702	99.3587786259542	0.0	0.0	0.0
2017-08-17 18:04:14.555109	lat	lng	-0.93212890625	0.599365234375	0.02099609375	18.27480916030534	154.24427480916032	91.89312977099236	0.0	0.0	0.0
2017-08-17 18:04:14.572994	lat	lng	-0.911376953125	0.65673828125	-0.004150390625	15.221374045801527	120.53435114503817	65.64885496183206	0.0	0.0	0.0
2017-08-17 18:04:14.589466	lat	lng	-0.834228515625	0.582763671875	0.021728515625	29.603053435114504	110.82442748091603	34.50381679389313	0.0	0.0	0.0
2017-08-17 18:04:14.607874	lat	lng	-0.717041015625	0.58935546875	-0.115234375	49.02290076335878	102.04580152671755	18.748091603053435	0.0	0.0	0.0
2017-08-17 18:04:14.624464	lat	lng	-0.73974609375	0.712890625	-0.501220703125	36.030534351145036	83.2824427480916	4.0458015267175576	0.0	0.0	0.0
2017-08-17 18:04:14.641495	lat	lng	-0.867919921875	0.629150390625	-0.332763671875	-31.541984732824428	-20.65648854961832	-5.862595419847328	0.0	0.0	0.0
2017-08-17 18:04:14.658027	lat	lng	-0.938232421875	0.643310546875	-0.181396484375	-65.40458015267176	-75.80152671755725	4.793893129770993	0.0	0.0	0.0
2017-08-17 18:04:14.675228	lat	lng	-0.78271484375	0.42236328125	0.071533203125	-61.17557251908397	-93.80152671755725	15.725190839694656	0.0	0.0	0.0
2017-08-17 18:04:14.691784	lat	lng	-0.698486328125	0.429443359375	0.149658203125	-7.297709923664122	-13.511450381679388	22.38167938931298	0.0	0.0	0.0
2017-08-17 18:04:14.713574	lat	lng	-0.712646484375	0.44921875	0.083251953125	37.66412213740458	60.3206106870229	7.022900763358779	0.0	0.0	0.0
2017-08-17 18:04:14.729955	lat	lng	-0.751708984375	0.49658203125	-0.02294921875	30.015267175572518	49.89312977099237	-4.793893129770993	0.0	0.0	0.0
2017-08-17 18:04:14.746967	lat	lng	-0.73486328125	0.408447265625	-0.014892578125	33.49618320610687	61.69465648854962	-16.717557251908396	0.0	0.0	0.0
2017-08-17 18:04:14.763308	lat	lng	-0.801025390625	0.39990234375	-0.060546875	29.022900763358777	66.35114503816794	-33.31297709923664	0.0	0.0	0.0
2017-08-17 18:04:14.780057	lat	lng	-0.880615234375	0.45458984375	-0.10302734375	12.870229007633588	50.88549618320611	-58.88549618320611	0.0	0.0	0.0
2017-08-17 18:04:14.796472	lat	lng	-0.96484375	0.48583984375	-0.114990234375	-4.625954198473282	31.908396946564885	-82.51908396946565	0.0	0.0	0.0
2017-08-17 18:04:14.813586	lat	lng	-1.05126953125	0.421875	-0.03564453125	-20.50381679389313	-7.282442748091603	-115.81679389312977	0.0	0.0	0.0
2017-08-17 18:04:14.830810	lat	lng	-0.802490234375	0.44482421875	0.006103515625	-50.16793893129771	-29.6793893129771	-117.16030534351145	0.0	0.0	0.0
2017-08-17 18:04:14.852120	lat	lng	-0.689453125	0.4541015625	-0.035888671875	-49.587786259541986	-27.450381679389313	-32.93129770992366	0.0	0.0	0.0
2017-08-17 18:04:14.869340	lat	lng	-4.0	3.268798828125	-0.0361328125	-0.3511450381679389	3.236641221374046	-97.89312977099236	0.0	0.0	0.0
2017-08-17 18:04:14.892641	lat	lng	-0.934814453125	0.4365234375	-0.11181640625	-2.6259541984732824	-18.396946564885496	-40.50381679389313	0.0	0.0	0.0
2017-08-17 18:04:14.909016	lat	lng	-0.886962890625	0.456298828125	-0.033447265625	-2.564885496183206	-14.412213740458014	-62.916030534351144	0.0	0.0	0.0
2017-08-17 18:04:14.927062	lat	lng	-0.864990234375	0.38671875	-0.01953125	-14.290076335877863	-1.4961832061068703	-67.83206106870229	0.0	0.0	0.0
2017-08-17 18:04:14.945211	lat	lng	-0.3505859375	-0.370849609375	0.008056640625	-9.938931297709924	4.427480916030534	-9.068702290076336	0.0	0.0	0.0
2017-08-17 18:04:14.969029	lat	lng	-0.9482421875	0.485107421875	-0.113525390625	-1.4351145038167938	-29.114503816793892	-10.15267175572519	0.0	0.0	0.0
2017-08-17 18:04:14.986519	lat	lng	-0.9384765625	0.388916015625	0.06005859375	-2.9770992366412212	-20.18320610687023	1.633587786259542	0.0	0.0	0.0
2017-08-17 18:04:15.004371	lat	lng	-0.9931640625	0.339599609375	0.060791015625	-21.00763358778626	-13.48091603053435	24.748091603053435	0.0	0.0	0.0
2017-08-17 18:04:15.022494	lat	lng	-0.903564453125	0.26513671875	-0.013671875	-11.969465648854962	-8.106870229007633	28.35114503816794	0.0	0.0	0.0
2017-08-17 18:04:15.040181	lat	lng	-0.93017578125	0.36181640625	-0.01025390625	-2.8091603053435112	-8.351145038167939	27.61832061068702	0.0	0.0	0.0
2017-08-17 18:04:15.058088	lat	lng	-0.923583984375	0.42236328125	-0.022216796875	0.7175572519083969	4.183206106870229	34.83969465648855	0.0	0.0	0.0
2017-08-17 18:04:15.074721	lat	lng	-0.85791015625	0.471923828125	0.025634765625	-0.9618320610687023	7.786259541984733	43.00763358778626	0.0	0.0	0.0
2017-08-17 18:04:15.091410	lat	lng	-0.845947265625	0.33154296875	0.1689453125	-18.458015267175572	-20.641221374045802	6.854961832061068	0.0	0.0	0.0
2017-08-17 18:04:15.110875	lat	lng	-1.070068359375	0.233154296875	-0.04541015625	-50.44274809160305	3.6793893129770994	-33.404580152671755	0.0	0.0	0.0
2017-08-17 18:04:15.130855	lat	lng	-1.021728515625	0.6884765625	-0.405517578125	-22.870229007633586	-46.12213740458015	-28.717557251908396	0.0	0.0	0.0
2017-08-17 18:04:15.149374	lat	lng	-1.0537109375	0.43212890625	-0.078857421875	43.083969465648856	-52.79389312977099	79.31297709923665	0.0	0.0	0.0
2017-08-17 18:04:15.173166	lat	lng	-1.0068359375	0.423828125	0.076904296875	47.221374045801525	-61.725190839694655	122.03053435114504	0.0	0.0	0.0
2017-08-17 18:04:15.190389	lat	lng	-0.88134765625	0.567138671875	-0.0478515625	10.030534351145038	-76.4885496183206	152.73282442748092	0.0	0.0	0.0
2017-08-17 18:04:15.207190	lat	lng	-0.8076171875	0.758544921875	0.098876953125	-56.36641221374046	-102.87022900763358	156.9770992366412	0.0	0.0	0.0
2017-08-17 18:04:15.225047	lat	lng	-0.893798828125	0.660888671875	0.17041015625	-94.9618320610687	-98.18320610687023	185.16030534351145	0.0	0.0	0.0
2017-08-17 18:04:15.244559	lat	lng	-0.79443359375	0.60888671875	0.145263671875	-52.274809160305345	-80.8854961832061	217.6030534351145	0.0	0.0	0.0
2017-08-17 18:04:15.262972	lat	lng	-0.5087890625	0.989501953125	0.0791015625	-53.52671755725191	-111.55725190839695	243.08396946564886	0.0	0.0	0.0
2017-08-17 18:04:15.285997	lat	lng	-0.96533203125	1.0791015625	0.004638671875	-36.0763358778626	-110.3969465648855	184.41221374045801	0.0	0.0	0.0
2017-08-17 18:04:15.316046	lat	lng	-0.4345703125	0.65673828125	0.3173828125	-27.46564885496183	-84.13740458015268	136.85496183206106	0.0	0.0	0.0
2017-08-17 18:04:15.338064	lat	lng	-0.7666015625	0.9228515625	0.357177734375	-30.396946564885496	-88.91603053435115	138.53435114503816	0.0	0.0	0.0
2017-08-17 18:04:15.364706	lat	lng	-0.350830078125	0.6826171875	0.343994140625	-24.015267175572518	-85.17557251908397	159.46564885496184	0.0	0.0	0.0
2017-08-17 18:04:15.386523	lat	lng	-0.026611328125	0.607177734375	0.3056640625	-44.0	-116.29007633587786	188.61068702290078	0.0	0.0	0.0
2017-08-17 18:04:15.409446	lat	lng	-0.336669921875	1.18017578125	0.339599609375	-76.80916030534351	-129.06870229007635	206.4885496183206	0.0	0.0	0.0
2017-08-17 18:04:15.433387	lat	lng	-0.2255859375	0.70166015625	0.515625	-65.22137404580153	-110.9618320610687	175.12977099236642	0.0	0.0	0.0
2017-08-17 18:04:15.457756	lat	lng	-0.1962890625	0.915283203125	0.57080078125	-18.763358778625953	-71.3587786259542	114.61068702290076	0.0	0.0	0.0
2017-08-17 18:04:15.478804	lat	lng	-0.1416015625	0.923583984375	0.458251953125	11.007633587786259	-59.343511450381676	87.46564885496183	0.0	0.0	0.0
2017-08-17 18:04:15.496293	lat	lng	-0.1005859375	0.895263671875	0.517822265625	28.778625954198475	-42.67175572519084	55.847328244274806	0.0	0.0	0.0
2017-08-17 18:04:15.514103	lat	lng	0.0234375	0.939208984375	0.437255859375	36.97709923664122	-21.557251908396946	50.79389312977099	0.0	0.0	0.0
2017-08-17 18:04:15.531443	lat	lng	-0.04248046875	0.9404296875	0.44873046875	25.954198473282442	-18.442748091603054	43.83206106870229	0.0	0.0	0.0
2017-08-17 18:04:15.549014	lat	lng	-0.03955078125	0.901123046875	0.373046875	35.57251908396947	-35.099236641221374	46.54961832061068	0.0	0.0	0.0
2017-08-17 18:04:15.566245	lat	lng	-0.105712890625	1.03955078125	0.54345703125	41.83206106870229	-20.03053435114504	26.16793893129771	0.0	0.0	0.0
2017-08-17 18:04:15.584322	lat	lng	0.01171875	0.9716796875	0.40283203125	52.42748091603053	-30.27480916030534	8.244274809160306	0.0	0.0	0.0
2017-08-17 18:04:15.601524	lat	lng	0.014404296875	1.037109375	0.474365234375	37.786259541984734	-18.27480916030534	-11.16030534351145	0.0	0.0	0.0
2017-08-17 18:04:15.619551	lat	lng	-0.05126953125	0.930908203125	0.468017578125	25.374045801526716	4.67175572519084	-23.87786259541985	0.0	0.0	0.0
2017-08-17 18:04:15.636962	lat	lng	0.00439453125	0.925537109375	0.36669921875	38.68702290076336	-3.786259541984733	-22.99236641221374	0.0	0.0	0.0
2017-08-17 18:04:15.654869	lat	lng	-0.007568359375	0.95556640625	0.31298828125	42.33587786259542	-16.580152671755727	-23.17557251908397	0.0	0.0	0.0
2017-08-17 18:04:15.672246	lat	lng	-0.068603515625	0.940673828125	0.39794921875	46.79389312977099	-12.702290076335878	-26.778625954198475	0.0	0.0	0.0
2017-08-17 18:04:15.689921	lat	lng	-0.093017578125	0.895263671875	0.33349609375	48.29007633587786	-19.6793893129771	-18.16793893129771	0.0	0.0	0.0
2017-08-17 18:04:15.707245	lat	lng	0.005126953125	0.92138671875	0.330810546875	50.534351145038165	-34.274809160305345	-0.4580152671755725	0.0	0.0	0.0
2017-08-17 18:04:15.725098	lat	lng	-0.020263671875	0.94970703125	0.362060546875	48.0	-26.27480916030534	1.282442748091603	0.0	0.0	0.0
2017-08-17 18:04:15.742458	lat	lng	-0.0263671875	0.949462890625	0.37744140625	40.732824427480914	-18.885496183206108	13.297709923664122	0.0	0.0	0.0
2017-08-17 18:04:15.759911	lat	lng	-0.047119140625	0.946044921875	0.30126953125	45.61832061068702	-8.931297709923664	16.33587786259542	0.0	0.0	0.0
2017-08-17 18:04:15.777235	lat	lng	-0.0166015625	1.007080078125	0.252197265625	48.19847328244275	-14.412213740458014	15.694656488549619	0.0	0.0	0.0
2017-08-17 18:04:15.794438	lat	lng	-0.02734375	0.98681640625	0.2666015625	47.31297709923664	-22.519083969465647	7.740458015267175	0.0	0.0	0.0
2017-08-17 18:04:15.811865	lat	lng	-0.023681640625	0.96875	0.27587890625	47.00763358778626	-26.900763358778626	7.816793893129771	0.0	0.0	0.0
2017-08-17 18:04:15.828942	lat	lng	0.001220703125	1.006591796875	0.248779296875	40.97709923664122	-23.954198473282442	10.977099236641221	0.0	0.0	0.0
2017-08-17 18:04:15.846058	lat	lng	0.049072265625	0.947021484375	0.381103515625	39.74045801526717	-12.916030534351146	13.709923664122137	0.0	0.0	0.0
2017-08-17 18:04:15.862937	lat	lng	0.0107421875	1.06494140625	0.23876953125	27.435114503816795	-22.366412213740457	3.8625954198473282	0.0	0.0	0.0
2017-08-17 18:04:15.879937	lat	lng	0.0234375	1.007568359375	0.226318359375	21.954198473282442	-13.572519083969466	-3.9083969465648853	0.0	0.0	0.0
2017-08-17 18:04:15.896870	lat	lng	0.006103515625	0.988525390625	0.226318359375	20.03053435114504	-10.305343511450381	1.1450381679389312	0.0	0.0	0.0
2017-08-17 18:04:15.914365	lat	lng	-0.00439453125	0.99072265625	0.226806640625	18.83969465648855	-12.381679389312977	4.137404580152672	0.0	0.0	0.0
2017-08-17 18:04:15.931332	lat	lng	0.002197265625	0.98681640625	0.23583984375	19.206106870229007	-11.770992366412214	4.8396946564885495	0.0	0.0	0.0
2017-08-17 18:04:15.948398	lat	lng	0.042724609375	1.0009765625	0.230224609375	18.137404580152673	-4.427480916030534	2.122137404580153	0.0	0.0	0.0
2017-08-17 18:04:15.965473	lat	lng	0.006103515625	0.98486328125	0.230224609375	21.389312977099237	-2.122137404580153	3.145038167938931	0.0	0.0	0.0
2017-08-17 18:04:15.982405	lat	lng	-0.004638671875	0.995361328125	0.200927734375	24.48854961832061	-5.206106870229007	4.580152671755725	0.0	0.0	0.0
2017-08-17 18:04:15.999351	lat	lng	0.02099609375	0.999755859375	0.2109375	26.732824427480917	-8.229007633587786	2.183206106870229	0.0	0.0	0.0
2017-08-17 18:04:16.016505	lat	lng	0.0107421875	0.996337890625	0.201171875	25.480916030534353	-8.15267175572519	-0.030534351145038167	0.0	0.0	0.0
2017-08-17 18:04:16.033215	lat	lng	0.026611328125	0.99951171875	0.18359375	24.977099236641223	-5.00763358778626	0.3816793893129771	0.0	0.0	0.0
2017-08-17 18:04:16.050470	lat	lng	0.00634765625	1.0009765625	0.185791015625	25.083969465648856	-7.175572519083969	-0.6106870229007634	0.0	0.0	0.0
2017-08-17 18:04:16.067592	lat	lng	-0.013916015625	0.988525390625	0.186279296875	27.770992366412212	-14.320610687022901	-1.1755725190839694	0.0	0.0	0.0
2017-08-17 18:04:16.084982	lat	lng	0.011962890625	0.99365234375	0.180908203125	30.458015267175572	-10.80916030534351	0.1984732824427481	0.0	0.0	0.0
2017-08-17 18:04:16.102555	lat	lng	0.036376953125	1.005126953125	0.152099609375	30.27480916030534	-10.122137404580153	1.0534351145038168	0.0	0.0	0.0
2017-08-17 18:04:16.119903	lat	lng	0.057373046875	0.9970703125	0.1630859375	31.0381679389313	-10.335877862595419	-0.2595419847328244	0.0	0.0	0.0
2017-08-17 18:04:16.137411	lat	lng	0.034912109375	1.006103515625	0.142822265625	30.931297709923665	-1.1603053435114503	0.8702290076335878	0.0	0.0	0.0
2017-08-17 18:04:16.155140	lat	lng	0.006103515625	1.012451171875	0.12646484375	29.61832061068702	1.1297709923664123	1.1755725190839694	0.0	0.0	0.0
2017-08-17 18:04:16.172655	lat	lng	0.012451171875	1.009521484375	0.121337890625	29.251908396946565	0.015267175572519083	1.6030534351145038	0.0	0.0	0.0
2017-08-17 18:04:16.194914	lat	lng	-0.069580078125	0.991455078125	0.141357421875	30.045801526717558	-14.198473282442748	-0.916030534351145	0.0	0.0	0.0
2017-08-17 18:04:16.217700	lat	lng	-0.019287109375	0.979248046875	0.096923828125	51.61832061068702	-4.748091603053435	0.916030534351145	0.0	0.0	0.0
2017-08-17 18:04:16.240030	lat	lng	0.044921875	0.992431640625	0.08837890625	48.0	5.00763358778626	1.618320610687023	0.0	0.0	0.0
2017-08-17 18:04:16.262105	lat	lng	0.00146484375	0.967529296875	0.090576171875	76.59541984732824	18.793893129770993	2.3053435114503817	0.0	0.0	0.0
2017-08-17 18:04:16.284379	lat	lng	0.02734375	0.967041015625	0.078369140625	86.06106870229007	30.427480916030536	2.8396946564885495	0.0	0.0	0.0
2017-08-17 18:04:16.306609	lat	lng	0.045166015625	1.249267578125	-0.0556640625	78.9618320610687	9.893129770992367	-6.366412213740458	0.0	0.0	0.0
2017-08-17 18:04:16.328564	lat	lng	-0.001953125	1.018310546875	-0.103271484375	9.908396946564885	5.145038167938932	1.6641221374045803	0.0	0.0	0.0
2017-08-17 18:04:16.349055	lat	lng	0.016357421875	1.021240234375	-0.03271484375	-7.251908396946565	0.42748091603053434	0.4580152671755725	0.0	0.0	0.0
2017-08-17 18:04:16.369934	lat	lng	0.010986328125	1.0185546875	-0.030029296875	0.12213740458015267	-0.061068702290076333	0.3816793893129771	0.0	0.0	0.0
2017-08-17 18:04:16.391563	lat	lng	0.009765625	1.016357421875	-0.015625	2.687022900763359	-0.13740458015267176	1.0534351145038168	0.0	0.0	0.0
2017-08-17 18:04:16.413028	lat	lng	0.012939453125	1.0146484375	-0.015625	4.015267175572519	-0.3511450381679389	1.0229007633587786	0.0	0.0	0.0
2017-08-17 18:04:16.433585	lat	lng	0.01318359375	1.017578125	-0.016845703125	3.648854961832061	-0.1984732824427481	0.9923664122137404	0.0	0.0	0.0
2017-08-17 18:04:16.454458	lat	lng	0.0185546875	1.020751953125	-0.023681640625	2.1374045801526718	0.07633587786259542	0.916030534351145	0.0	0.0	0.0
2017-08-17 18:04:16.476424	lat	lng	0.002197265625	0.995361328125	0.052001953125	2.366412213740458	-0.3053435114503817	1.0076335877862594	0.0	0.0	0.0
2017-08-17 18:04:16.498052	lat	lng	0.01025390625	1.013671875	-0.022705078125	2.427480916030534	0.3053435114503817	0.8244274809160306	0.0	0.0	0.0
2017-08-17 18:04:16.518754	lat	lng	0.014404296875	1.022705078125	-0.0595703125	0.15267175572519084	0.44274809160305345	0.5343511450381679	0.0	0.0	0.0
2017-08-17 18:04:16.540120	lat	lng	0.002197265625	1.0205078125	-0.013671875	2.122137404580153	0.07633587786259542	1.1603053435114503	0.0	0.0	0.0
2017-08-17 18:04:16.562567	lat	lng	-0.009521484375	1.016845703125	-0.055419921875	1.8931297709923665	-0.4122137404580153	1.6946564885496183	0.0	0.0	0.0
2017-08-17 18:04:16.584245	lat	lng	0.001220703125	1.01806640625	-0.054931640625	1.984732824427481	10.488549618320612	1.6641221374045803	0.0	0.0	0.0
2017-08-17 18:04:16.609357	lat	lng	0.01171875	1.02099609375	-0.020263671875	1.5725190839694656	0.8244274809160306	1.4045801526717556	0.0	0.0	0.0
2017-08-17 18:04:16.635846	lat	lng	0.00146484375	1.01611328125	-0.028564453125	2.122137404580153	9.083969465648854	1.1755725190839694	0.0	0.0	0.0
2017-08-17 18:04:16.657588	lat	lng	0.107421875	1.097900390625	-0.310791015625	-2.854961832061069	2.366412213740458	-2.4580152671755724	0.0	0.0	0.0
2017-08-17 18:04:16.678465	lat	lng	0.012939453125	1.01611328125	-0.009521484375	1.099236641221374	0.8244274809160306	1.4809160305343512	0.0	0.0	0.0
2017-08-17 18:04:16.695476	lat	lng	0.01220703125	1.01806640625	-0.01025390625	2.1068702290076335	0.030534351145038167	1.1145038167938932	0.0	0.0	0.0
2017-08-17 18:04:16.713254	lat	lng	0.291015625	1.130126953125	-0.25732421875	-1.2671755725190839	-3.3740458015267176	-4.900763358778626	0.0	0.0	0.0
2017-08-17 18:04:16.729966	lat	lng	0.068359375	1.03857421875	-0.048095703125	2.6106870229007635	0.549618320610687	-1.0381679389312977	0.0	0.0	0.0
2017-08-17 18:04:16.747973	lat	lng	0.011474609375	1.01416015625	-0.015869140625	2.3969465648854964	0.10687022900763359	1.099236641221374	0.0	0.0	0.0
2017-08-17 18:04:16.766650	lat	lng	0.013427734375	1.018310546875	-0.011962890625	2.595419847328244	-0.0916030534351145	0.6106870229007634	0.0	0.0	0.0
2017-08-17 18:04:16.795485	lat	lng	-0.0068359375	1.009765625	0.0	2.717557251908397	-0.9618320610687023	0.9312977099236641	0.0	0.0	0.0
2017-08-17 18:04:16.815379	lat	lng	0.012939453125	1.01708984375	-0.013671875	2.366412213740458	-0.16793893129770993	1.1297709923664123	0.0	0.0	0.0
2017-08-17 18:04:16.834380	lat	lng	-0.003662109375	1.018310546875	-0.015380859375	2.564885496183206	-0.9007633587786259	2.198473282442748	0.0	0.0	0.0
2017-08-17 18:04:16.854685	lat	lng	-0.333740234375	0.92822265625	0.103515625	3.984732824427481	-6.213740458015267	9.48091603053435	0.0	0.0	0.0
2017-08-17 18:04:16.874317	lat	lng	-0.014892578125	1.009033203125	-0.007080078125	2.213740458015267	-0.13740458015267176	0.916030534351145	0.0	0.0	0.0
2017-08-17 18:04:16.893903	lat	lng	0.01171875	1.014404296875	-0.015380859375	1.7251908396946565	-0.21374045801526717	1.1450381679389312	0.0	0.0	0.0
2017-08-17 18:04:16.916056	lat	lng	-0.017578125	1.014892578125	-0.029541015625	1.4961832061068703	-5.893129770992366	1.297709923664122	0.0	0.0	0.0
2017-08-17 18:04:16.933208	lat	lng	0.01806640625	1.016845703125	-0.01123046875	2.946564885496183	-6.793893129770993	0.7480916030534351	0.0	0.0	0.0
2017-08-17 18:04:16.954147	lat	lng	0.02294921875	1.01953125	-0.016357421875	2.6259541984732824	-1.4351145038167938	0.5648854961832062	0.0	0.0	0.0
2017-08-17 18:04:16.974847	lat	lng	0.0166015625	1.01953125	-0.023681640625	2.6106870229007635	-0.1984732824427481	0.732824427480916	0.0	0.0	0.0
2017-08-17 18:04:16.992884	lat	lng	0.0146484375	1.016845703125	-0.018798828125	2.687022900763359	0.24427480916030533	0.732824427480916	0.0	0.0	0.0
2017-08-17 18:04:17.016282	lat	lng	0.01416015625	1.01611328125	-0.0146484375	3.2061068702290076	0.15267175572519084	0.3511450381679389	0.0	0.0	0.0
2017-08-17 18:04:17.032801	lat	lng	0.010986328125	1.016357421875	-0.01318359375	2.732824427480916	0.10687022900763359	0.6259541984732825	0.0	0.0	0.0
2017-08-17 18:04:17.049423	lat	lng	0.012939453125	1.017578125	-0.007080078125	2.4427480916030535	3.877862595419847	1.0229007633587786	0.0	0.0	0.0
2017-08-17 18:04:17.066624	lat	lng	0.12451171875	0.953125	0.278076171875	8.534351145038167	2.16793893129771	-3.6793893129770994	0.0	0.0	0.0
2017-08-17 18:04:17.083269	lat	lng	0.01708984375	1.012451171875	-0.00341796875	3.114503816793893	0.12213740458015267	0.15267175572519084	0.0	0.0	0.0
2017-08-17 18:04:17.102308	lat	lng	-0.17431640625	1.028076171875	-0.216064453125	-3.984732824427481	-24.53435114503817	-1.3282442748091603	0.0	0.0	0.0
2017-08-17 18:04:17.121582	lat	lng	0.080078125	1.05322265625	-0.048095703125	4.5038167938931295	-0.5038167938931297	-0.24427480916030533	0.0	0.0	0.0
2017-08-17 18:04:17.140138	lat	lng	-0.05224609375	0.97216796875	-0.010498046875	5.893129770992366	0.24427480916030533	2.946564885496183	0.0	0.0	0.0
2017-08-17 18:04:17.163176	lat	lng	0.026611328125	1.017822265625	0.01611328125	4.1679389312977095	-3.877862595419847	0.12213740458015267	0.0	0.0	0.0
2017-08-17 18:04:17.180441	lat	lng	0.00048828125	1.0126953125	-0.010009765625	2.6717557251908395	-0.0916030534351145	0.7175572519083969	0.0	0.0	0.0
2017-08-17 18:04:17.198191	lat	lng	-0.02587890625	1.02001953125	-0.0400390625	3.114503816793893	-13.938931297709924	0.4732824427480916	0.0	0.0	0.0
2017-08-17 18:04:17.215449	lat	lng	-0.030517578125	1.011962890625	-0.038330078125	2.6717557251908395	-18.045801526717558	0.6870229007633588	0.0	0.0	0.0
2017-08-17 18:04:17.233245	lat	lng	0.171875	1.02978515625	0.080810546875	3.7251908396946565	-2.213740458015267	1.1145038167938932	0.0	0.0	0.0
2017-08-17 18:04:17.250287	lat	lng	0.001953125	1.017578125	-0.024658203125	0.2900763358778626	0.12213740458015267	1.8473282442748091	0.0	0.0	0.0
2017-08-17 18:04:17.272123	lat	lng	0.028076171875	1.012939453125	0.013671875	1.3587786259541985	-1.8778625954198473	2.2595419847328246	0.0	0.0	0.0
2017-08-17 18:04:17.289140	lat	lng	0.01318359375	1.0166015625	-0.0078125	3.83206106870229	-0.5954198473282443	0.6259541984732825	0.0	0.0	0.0
2017-08-17 18:04:17.307671	lat	lng	0.017578125	1.016845703125	-0.0146484375	3.5419847328244276	-0.9465648854961832	1.297709923664122	0.0	0.0	0.0
2017-08-17 18:04:17.326088	lat	lng	0.014892578125	1.017822265625	-0.00732421875	2.6259541984732824	-2.885496183206107	0.9007633587786259	0.0	0.0	0.0
2017-08-17 18:04:17.347815	lat	lng	0.01806640625	1.021240234375	-0.018310546875	2.9160305343511452	-1.2671755725190839	0.48854961832061067	0.0	0.0	0.0
2017-08-17 18:04:17.368237	lat	lng	0.01611328125	1.017333984375	-0.0126953125	2.564885496183206	-0.3816793893129771	0.7938931297709924	0.0	0.0	0.0
2017-08-17 18:04:17.389987	lat	lng	0.010009765625	1.015625	-0.014404296875	2.4122137404580153	0.0916030534351145	0.6717557251908397	0.0	0.0	0.0
2017-08-17 18:04:17.417090	lat	lng	0.010986328125	1.01904296875	-0.014892578125	2.519083969465649	-3.9083969465648853	0.9007633587786259	0.0	0.0	0.0
2017-08-17 18:04:17.450021	lat	lng	0.013427734375	1.01708984375	-0.013427734375	2.6564885496183206	-0.061068702290076333	0.8549618320610687	0.0	0.0	0.0
2017-08-17 18:04:17.470837	lat	lng	0.0185546875	1.015625	-0.017333984375	2.6564885496183206	3.8931297709923665	0.8549618320610687	0.0	0.0	0.0
2017-08-17 18:04:17.492089	lat	lng	0.013427734375	1.01513671875	-0.015869140625	2.549618320610687	0.04580152671755725	0.732824427480916	0.0	0.0	0.0
2017-08-17 18:04:17.516080	lat	lng	0.00927734375	1.01708984375	-0.01806640625	2.381679389312977	0.4122137404580153	0.4732824427480916	0.0	0.0	0.0
2017-08-17 18:04:17.538035	lat	lng	0.00927734375	1.052490234375	-0.03076171875	2.4427480916030535	0.10687022900763359	0.44274809160305345	0.0	0.0	0.0
2017-08-17 18:04:17.559182	lat	lng	0.017578125	1.01220703125	-0.020751953125	2.885496183206107	-0.1984732824427481	0.9465648854961832	0.0	0.0	0.0
2017-08-17 18:04:17.581166	lat	lng	0.00927734375	1.0185546875	-0.017578125	2.4427480916030535	-0.21374045801526717	0.9007633587786259	0.0	0.0	0.0
2017-08-17 18:04:17.599502	lat	lng	0.016845703125	1.0263671875	-0.01953125	2.732824427480916	-0.1984732824427481	0.9312977099236641	0.0	0.0	0.0
2017-08-17 18:04:17.618730	lat	lng	0.01171875	1.016357421875	-0.0126953125	2.4427480916030535	-0.15267175572519084	0.9312977099236641	0.0	0.0	0.0
2017-08-17 18:04:17.636519	lat	lng	0.013671875	1.022705078125	-0.0126953125	2.595419847328244	0.015267175572519083	1.1755725190839694	0.0	0.0	0.0
2017-08-17 18:04:17.655570	lat	lng	0.012939453125	1.018310546875	-0.013916015625	2.351145038167939	0.0916030534351145	1.3129770992366412	0.0	0.0	0.0
2017-08-17 18:04:17.676923	lat	lng	0.0107421875	1.018798828125	-0.011474609375	2.351145038167939	-0.10687022900763359	1.0687022900763359	0.0	0.0	0.0
2017-08-17 18:04:17.693979	lat	lng	0.012939453125	1.01806640625	-0.010009765625	2.33587786259542	0.12213740458015267	1.0381679389312977	0.0	0.0	0.0
2017-08-17 18:04:17.710332	lat	lng	0.0087890625	1.017578125	-0.01123046875	2.33587786259542	0.33587786259541985	0.8549618320610687	0.0	0.0	0.0
2017-08-17 18:04:17.727355	lat	lng	0.01416015625	1.014892578125	-0.010986328125	2.564885496183206	0.07633587786259542	0.8396946564885496	0.0	0.0	0.0
2017-08-17 18:04:17.744029	lat	lng	0.016357421875	1.02099609375	-0.021240234375	2.4427480916030535	0.13740458015267176	1.0229007633587786	0.0	0.0	0.0
2017-08-17 18:04:17.761484	lat	lng	0.01220703125	1.015869140625	-0.01953125	2.4427480916030535	-0.10687022900763359	1.1603053435114503	0.0	0.0	0.0
2017-08-17 18:04:17.777865	lat	lng	0.01416015625	1.014892578125	-0.013916015625	2.732824427480916	-0.13740458015267176	1.0076335877862594	0.0	0.0	0.0
2017-08-17 18:04:17.795717	lat	lng	0.013671875	1.01708984375	-0.008056640625	2.4885496183206106	0.0	0.8244274809160306	0.0	0.0	0.0
2017-08-17 18:04:17.812823	lat	lng	0.031982421875	1.015380859375	-0.067626953125	0.6564885496183206	1.5114503816793894	-2.5343511450381677	0.0	0.0	0.0
2017-08-17 18:04:17.837808	lat	lng	0.025390625	1.012451171875	0.006103515625	2.213740458015267	0.549618320610687	-3.9083969465648853	0.0	0.0	0.0
2017-08-17 18:04:17.858881	lat	lng	0.003662109375	1.0126953125	-0.01025390625	2.33587786259542	0.10687022900763359	0.3816793893129771	0.0	0.0	0.0
2017-08-17 18:04:17.876325	lat	lng	0.018310546875	1.01953125	-0.01318359375	3.404580152671756	-0.2900763358778626	1.1450381679389312	0.0	0.0	0.0
2017-08-17 18:04:17.893754	lat	lng	0.0078125	1.01416015625	-0.000732421875	4.67175572519084	-0.6106870229007634	2.2595419847328246	0.0	0.0	0.0
2017-08-17 18:04:17.910783	lat	lng	0.005859375	1.014892578125	-0.01220703125	7.145038167938932	-0.5038167938931297	4.641221374045801	0.0	0.0	0.0
2017-08-17 18:04:17.928998	lat	lng	0.01513671875	1.022705078125	-0.015380859375	6.458015267175573	1.450381679389313	3.3740458015267176	0.0	0.0	0.0
2017-08-17 18:04:17.945684	lat	lng	0.017333984375	1.01904296875	-0.02099609375	4.061068702290076	2.6412213740458017	2.9160305343511452	0.0	0.0	0.0
2017-08-17 18:04:17.962516	lat	lng	0.021240234375	1.018310546875	-0.025634765625	0.07633587786259542	1.0534351145038168	0.21374045801526717	0.0	0.0	0.0
2017-08-17 18:04:17.978972	lat	lng	0.024169921875	1.017333984375	-0.019287109375	-1.2366412213740459	1.1755725190839694	-1.1603053435114503	0.0	0.0	0.0
2017-08-17 18:04:17.995829	lat	lng	0.009765625	1.0146484375	-0.0048828125	-0.3969465648854962	1.5114503816793894	-1.6030534351145038	0.0	0.0	0.0
2017-08-17 18:04:18.012355	lat	lng	0.00244140625	1.010009765625	-0.009521484375	2.0916030534351147	0.5648854961832062	0.7480916030534351	0.0	0.0	0.0
2017-08-17 18:04:18.029106	lat	lng	0.00244140625	1.01123046875	-0.0078125	3.2519083969465647	0.15267175572519084	2.2290076335877864	0.0	0.0	0.0
2017-08-17 18:04:18.045800	lat	lng	0.01416015625	1.01708984375	-0.008544921875	3.7251908396946565	-0.0916030534351145	2.1374045801526718	0.0	0.0	0.0
2017-08-17 18:04:18.063672	lat	lng	0.011474609375	1.031005859375	-0.049560546875	2.2442748091603053	0.9770992366412213	2.2900763358778624	0.0	0.0	0.0
2017-08-17 18:04:18.082009	lat	lng	0.01513671875	1.017822265625	-0.017333984375	3.648854961832061	-0.21374045801526717	0.916030534351145	0.0	0.0	0.0
2017-08-17 18:04:18.102398	lat	lng	0.018798828125	1.0185546875	-0.014892578125	2.900763358778626	-0.13740458015267176	0.8549618320610687	0.0	0.0	0.0
2017-08-17 18:04:18.121344	lat	lng	0.017822265625	1.016357421875	-0.021484375	2.4885496183206106	0.6870229007633588	0.9312977099236641	0.0	0.0	0.0
2017-08-17 18:04:18.142387	lat	lng	0.093994140625	1.02490234375	0.014404296875	0.9465648854961832	42.213740458015266	-0.04580152671755725	0.0	0.0	0.0
2017-08-17 18:04:18.159084	lat	lng	-0.048095703125	1.01416015625	-0.036376953125	3.068702290076336	18.137404580152673	1.0229007633587786	0.0	0.0	0.0
2017-08-17 18:04:18.177460	lat	lng	0.03369140625	1.02099609375	-0.00341796875	2.717557251908397	26.977099236641223	1.0229007633587786	0.0	0.0	0.0
2017-08-17 18:04:18.195549	lat	lng	0.005859375	1.016357421875	-0.02587890625	3.0381679389312977	20.33587786259542	1.1603053435114503	0.0	0.0	0.0
2017-08-17 18:04:18.213613	lat	lng	0.019287109375	1.017578125	-0.02001953125	2.7938931297709924	13.725190839694656	1.1908396946564885	0.0	0.0	0.0
2017-08-17 18:04:18.231653	lat	lng	0.013427734375	1.020263671875	-0.01806640625	2.4122137404580153	12.595419847328245	1.1145038167938932	0.0	0.0	0.0
2017-08-17 18:04:18.248905	lat	lng	0.006591796875	1.016357421875	-0.02099609375	2.7786259541984735	2.2290076335877864	1.1755725190839694	0.0	0.0	0.0
2017-08-17 18:04:18.266150	lat	lng	0.013427734375	1.01708984375	-0.018798828125	2.030534351145038	0.13740458015267176	1.0229007633587786	0.0	0.0	0.0
2017-08-17 18:04:18.283670	lat	lng	0.015869140625	1.015869140625	-0.016845703125	1.0381679389312977	0.549618320610687	0.7022900763358778	0.0	0.0	0.0
2017-08-17 18:04:18.306031	lat	lng	0.01416015625	1.015380859375	-0.0126953125	1.5725190839694656	0.7175572519083969	0.24427480916030533	0.0	0.0	0.0
2017-08-17 18:04:18.328170	lat	lng	0.015625	1.01318359375	-0.01416015625	1.4809160305343512	0.9465648854961832	0.15267175572519084	0.0	0.0	0.0
2017-08-17 18:04:18.350104	lat	lng	0.01318359375	1.017333984375	-0.0087890625	1.9083969465648856	0.48854961832061067	0.1984732824427481	0.0	0.0	0.0
2017-08-17 18:04:18.371044	lat	lng	0.01416015625	1.017578125	-0.009765625	2.3206106870229006	0.0916030534351145	1.083969465648855	0.0	0.0	0.0
2017-08-17 18:04:18.392313	lat	lng	0.015625	1.02001953125	-0.0205078125	2.7022900763358777	-0.33587786259541985	1.7099236641221374	0.0	0.0	0.0
2017-08-17 18:04:18.410170	lat	lng	0.013427734375	1.016845703125	-0.011474609375	2.2290076335877864	-0.061068702290076333	1.6030534351145038	0.0	0.0	0.0
2017-08-17 18:04:18.429937	lat	lng	0.012451171875	1.01904296875	-0.015380859375	2.4732824427480917	-0.33587786259541985	1.5114503816793894	0.0	0.0	0.0
2017-08-17 18:04:18.447507	lat	lng	0.01416015625	1.013427734375	-0.0205078125	2.183206106870229	0.16793893129770993	0.6564885496183206	0.0	0.0	0.0
2017-08-17 18:04:18.465781	lat	lng	0.012939453125	1.019287109375	-0.00927734375	2.0763358778625953	0.030534351145038167	0.4732824427480916	0.0	0.0	0.0
2017-08-17 18:04:18.482469	lat	lng	0.0126953125	1.01953125	-0.01513671875	1.8015267175572518	0.21374045801526717	-0.1984732824427481	0.0	0.0	0.0
2017-08-17 18:04:18.502454	lat	lng	0.013427734375	1.017578125	-0.015380859375	1.5419847328244274	0.42748091603053434	-0.3969465648854962	0.0	0.0	0.0
2017-08-17 18:04:18.521607	lat	lng	0.0068359375	1.01513671875	-0.012451171875	2.015267175572519	0.22900763358778625	0.44274809160305345	0.0	0.0	0.0
2017-08-17 18:04:18.540842	lat	lng	0.012451171875	1.018798828125	-0.009765625	2.4732824427480917	-0.1984732824427481	1.2671755725190839	0.0	0.0	0.0
2017-08-17 18:04:18.560468	lat	lng	0.00537109375	1.01611328125	-0.013671875	2.4885496183206106	-0.5190839694656488	2.3053435114503817	0.0	0.0	0.0
2017-08-17 18:04:18.579369	lat	lng	0.016357421875	1.019775390625	-0.01416015625	2.4732824427480917	-1.816793893129771	2.183206106870229	0.0	0.0	0.0
2017-08-17 18:04:18.602198	lat	lng	-0.055419921875	1.0244140625	-0.032470703125	1.0229007633587786	-16.03053435114504	2.595419847328244	0.0	0.0	0.0
2017-08-17 18:04:18.619456	lat	lng	-0.00634765625	1.059326171875	-0.0791015625	-7.404580152671755	-6.885496183206107	6.473282442748092	0.0	0.0	0.0
2017-08-17 18:04:18.640368	lat	lng	-0.0087890625	1.032958984375	-0.029052734375	-5.358778625954199	14.610687022900763	14.50381679389313	0.0	0.0	0.0
2017-08-17 18:04:18.658708	lat	lng	-0.0185546875	1.03955078125	-0.02197265625	-10.83969465648855	16.885496183206108	23.61832061068702	0.0	0.0	0.0
2017-08-17 18:04:18.677793	lat	lng	0.049072265625	1.0146484375	-0.017822265625	-15.022900763358779	10.549618320610687	29.389312977099237	0.0	0.0	0.0
2017-08-17 18:04:18.695246	lat	lng	-0.013916015625	1.027099609375	-0.00830078125	-18.33587786259542	-9.038167938931299	34.656488549618324	0.0	0.0	0.0
2017-08-17 18:04:18.713109	lat	lng	0.009765625	1.082763671875	0.07861328125	-22.259541984732824	-26.35114503816794	67.8473282442748	0.0	0.0	0.0
2017-08-17 18:04:18.729949	lat	lng	0.23974609375	1.15380859375	0.114990234375	-5.175572519083969	-22.80916030534351	130.7175572519084	0.0	0.0	0.0
2017-08-17 18:04:18.747738	lat	lng	0.217041015625	1.370849609375	-0.125244140625	21.801526717557252	-51.38931297709924	252.36641221374046	0.0	0.0	0.0
2017-08-17 18:04:18.764676	lat	lng	0.5361328125	0.65234375	-0.301513671875	48.030534351145036	-38.900763358778626	330.44274809160305	0.0	0.0	0.0
2017-08-17 18:04:18.782433	lat	lng	0.096923828125	0.75439453125	0.0234375	-7.0534351145038165	-37.57251908396947	340.77862595419845	0.0	0.0	0.0
2017-08-17 18:04:18.802987	lat	lng	0.34765625	1.90576171875	0.01025390625	-19.740458015267176	-65.46564885496183	343.5267175572519	0.0	0.0	0.0
2017-08-17 18:04:18.820148	lat	lng	0.494873046875	1.1201171875	0.0419921875	-14.549618320610687	-50.51908396946565	295.17557251908397	0.0	0.0	0.0
2017-08-17 18:04:18.842705	lat	lng	0.427734375	0.75830078125	-0.098876953125	-25.587786259541986	-0.8549618320610687	190.19847328244273	0.0	0.0	0.0
2017-08-17 18:04:18.859040	lat	lng	0.607421875	0.51806640625	-0.10009765625	-0.3053435114503817	-18.519083969465647	163.46564885496184	0.0	0.0	0.0
2017-08-17 18:04:18.876149	lat	lng	0.837158203125	0.387451171875	-0.30908203125	9.908396946564885	-21.603053435114504	160.73282442748092	0.0	0.0	0.0
2017-08-17 18:04:18.892498	lat	lng	0.81201171875	0.920654296875	0.162109375	-21.954198473282442	3.5114503816793894	153.6030534351145	0.0	0.0	0.0
2017-08-17 18:04:18.909056	lat	lng	0.984375	0.767822265625	0.541259765625	-13.206106870229007	-0.8091603053435115	190.06106870229007	0.0	0.0	0.0
2017-08-17 18:04:18.926275	lat	lng	0.988525390625	0.94580078125	0.299560546875	-31.96946564885496	-3.099236641221374	184.53435114503816	0.0	0.0	0.0
2017-08-17 18:04:18.942892	lat	lng	1.124755859375	1.667236328125	0.131103515625	-20.885496183206108	-6.8396946564885495	171.5267175572519	0.0	0.0	0.0
2017-08-17 18:04:18.959805	lat	lng	0.799560546875	0.562744140625	0.126220703125	-14.961832061068701	-4.351145038167939	150.0916030534351	0.0	0.0	0.0
2017-08-17 18:04:18.977082	lat	lng	1.002685546875	0.8232421875	0.039306640625	-25.984732824427482	23.404580152671755	115.70992366412214	0.0	0.0	0.0
2017-08-17 18:04:18.994454	lat	lng	0.938232421875	0.45458984375	0.003173828125	-11.816793893129772	48.01526717557252	96.3206106870229	0.0	0.0	0.0
2017-08-17 18:04:19.012037	lat	lng	0.959228515625	0.6279296875	0.112548828125	7.312977099236641	37.25190839694657	91.1145038167939	0.0	0.0	0.0
2017-08-17 18:04:19.028692	lat	lng	0.79833984375	0.2314453125	0.2412109375	36.01526717557252	31.6793893129771	110.68702290076335	0.0	0.0	0.0
2017-08-17 18:04:19.045960	lat	lng	0.9375	0.12890625	-0.177978515625	89.41984732824427	114.61068702290076	186.73282442748092	0.0	0.0	0.0
2017-08-17 18:04:19.063058	lat	lng	0.90869140625	0.529541015625	0.06396484375	31.31297709923664	85.5114503816794	177.4351145038168	0.0	0.0	0.0
2017-08-17 18:04:19.080142	lat	lng	0.788818359375	0.24072265625	-0.08642578125	-11.618320610687023	43.603053435114504	233.66412213740458	0.0	0.0	0.0
2017-08-17 18:04:19.099268	lat	lng	0.988525390625	0.1845703125	0.132568359375	1.0381679389312977	32.274809160305345	182.3969465648855	0.0	0.0	0.0
2017-08-17 18:04:19.121364	lat	lng	1.04638671875	0.22216796875	0.16552734375	13.557251908396946	11.679389312977099	147.95419847328245	0.0	0.0	0.0
2017-08-17 18:04:19.144822	lat	lng	1.031982421875	0.19091796875	0.1435546875	1.9236641221374047	31.862595419847327	114.06106870229007	0.0	0.0	0.0
2017-08-17 18:04:19.167194	lat	lng	1.074951171875	0.166259765625	0.066650390625	12.854961832061068	47.267175572519086	103.38931297709924	0.0	0.0	0.0
2017-08-17 18:04:19.188764	lat	lng	1.078369140625	0.094482421875	0.13427734375	8.396946564885496	51.45038167938932	83.54198473282443	0.0	0.0	0.0
2017-08-17 18:04:19.212641	lat	lng	1.0048828125	0.218017578125	0.115478515625	6.1679389312977095	43.29770992366412	3.0229007633587788	0.0	0.0	0.0
2017-08-17 18:04:19.229131	lat	lng	1.021484375	-0.002685546875	0.213623046875	12.366412213740459	49.06870229007634	2.4427480916030535	0.0	0.0	0.0
2017-08-17 18:04:19.246857	lat	lng	0.92578125	0.019287109375	0.2275390625	22.35114503816794	51.80152671755725	5.938931297709924	0.0	0.0	0.0
2017-08-17 18:04:19.266297	lat	lng	0.9560546875	0.02978515625	0.193115234375	31.87786259541985	12.992366412213741	7.00763358778626	0.0	0.0	0.0
2017-08-17 18:04:19.283426	lat	lng	0.98388671875	0.136962890625	0.184814453125	5.8320610687022905	-8.396946564885496	1.282442748091603	0.0	0.0	0.0
2017-08-17 18:04:19.302083	lat	lng	0.996826171875	-0.007568359375	0.202392578125	5.938931297709924	0.732824427480916	2.7480916030534353	0.0	0.0	0.0
2017-08-17 18:04:19.320208	lat	lng	0.980712890625	-0.00146484375	0.22021484375	17.87786259541985	-4.0	4.458015267175573	0.0	0.0	0.0
2017-08-17 18:04:19.338606	lat	lng	0.955078125	0.026611328125	0.2216796875	14.549618320610687	-19.84732824427481	2.1374045801526718	0.0	0.0	0.0
2017-08-17 18:04:19.356524	lat	lng	0.9951171875	0.0263671875	0.2001953125	2.7786259541984735	-27.053435114503817	1.0076335877862594	0.0	0.0	0.0
2017-08-17 18:04:19.375190	lat	lng	0.999267578125	-0.005126953125	0.171630859375	7.7251908396946565	-19.053435114503817	1.1908396946564885	0.0	0.0	0.0
2017-08-17 18:04:19.393178	lat	lng	1.013671875	0.029541015625	0.18408203125	9.587786259541986	-12.274809160305344	2.16793893129771	0.0	0.0	0.0
2017-08-17 18:04:19.414512	lat	lng	0.905517578125	0.1044921875	0.259765625	11.694656488549619	-38.229007633587784	1.083969465648855	0.0	0.0	0.0
2017-08-17 18:04:19.432817	lat	lng	1.024169921875	-0.027587890625	0.1357421875	0.9923664122137404	-48.94656488549618	0.24427480916030533	0.0	0.0	0.0
2017-08-17 18:04:19.452175	lat	lng	1.016357421875	0.025390625	0.159423828125	1.7709923664122138	-41.31297709923664	-1.3587786259541985	0.0	0.0	0.0
2017-08-17 18:04:19.469964	lat	lng	1.004150390625	0.01513671875	0.14013671875	-11.694656488549619	-41.099236641221374	-0.8396946564885496	0.0	0.0	0.0
2017-08-17 18:04:19.488937	lat	lng	0.99462890625	-0.005126953125	0.123046875	1.7709923664122138	-50.10687022900763	0.5648854961832062	0.0	0.0	0.0
2017-08-17 18:04:19.506602	lat	lng	0.973876953125	-0.0068359375	0.07470703125	14.80916030534351	-77.6793893129771	1.4351145038167938	0.0	0.0	0.0
2017-08-17 18:04:19.527971	lat	lng	0.952880859375	-0.0517578125	0.111083984375	13.541984732824428	-80.4885496183206	1.282442748091603	0.0	0.0	0.0
2017-08-17 18:04:19.547587	lat	lng	1.027587890625	0.026611328125	0.074951171875	5.343511450381679	-84.8854961832061	2.1374045801526718	0.0	0.0	0.0
2017-08-17 18:04:19.565749	lat	lng	1.807373046875	-0.032470703125	0.122802734375	-13.435114503816793	-27.404580152671755	15.83206106870229	0.0	0.0	0.0
2017-08-17 18:04:19.585119	lat	lng	0.997802734375	-0.016357421875	-0.026611328125	-7.175572519083969	-16.916030534351144	10.625954198473282	0.0	0.0	0.0
2017-08-17 18:04:19.604167	lat	lng	1.00830078125	-0.031494140625	-0.045166015625	-3.3282442748091605	0.549618320610687	-0.1984732824427481	0.0	0.0	0.0
2017-08-17 18:04:19.624023	lat	lng	1.01953125	-0.005859375	0.02734375	-2.4122137404580153	6.8396946564885495	-4.305343511450381	0.0	0.0	0.0
2017-08-17 18:04:19.640774	lat	lng	1.01708984375	-0.00390625	0.0048828125	2.6412213740458017	13.603053435114504	-8.305343511450381	0.0	0.0	0.0
2017-08-17 18:04:19.662480	lat	lng	1.02197265625	0.00830078125	0.032470703125	1.984732824427481	8.687022900763358	-3.984732824427481	0.0	0.0	0.0
2017-08-17 18:04:19.678889	lat	lng	1.01416015625	0.019287109375	0.038330078125	3.8625954198473282	3.7404580152671754	-1.618320610687023	0.0	0.0	0.0
2017-08-17 18:04:19.695802	lat	lng	1.01708984375	0.01611328125	0.042236328125	-1.3435114503816794	0.5038167938931297	0.13740458015267176	0.0	0.0	0.0
2017-08-17 18:04:19.712298	lat	lng	1.01513671875	0.009765625	0.025634765625	-2.6259541984732824	-4.916030534351145	3.3740458015267176	0.0	0.0	0.0
2017-08-17 18:04:19.729801	lat	lng	1.0185546875	0.0029296875	0.025634765625	-1.5419847328244274	-7.541984732824427	4.732824427480916	0.0	0.0	0.0
2017-08-17 18:04:19.746686	lat	lng	1.017822265625	0.0107421875	0.005859375	-5.221374045801527	-5.603053435114504	0.015267175572519083	0.0	0.0	0.0
2017-08-17 18:04:19.764623	lat	lng	1.017333984375	0.00244140625	0.020263671875	-4.488549618320611	-5.801526717557252	4.030534351145038	0.0	0.0	0.0
2017-08-17 18:04:19.782201	lat	lng	1.012451171875	0.010009765625	0.030029296875	-7.587786259541985	-4.137404580152672	2.6412213740458017	0.0	0.0	0.0
2017-08-17 18:04:19.801872	lat	lng	1.01806640625	0.009521484375	0.021484375	-10.13740458015267	-2.4580152671755724	1.618320610687023	0.0	0.0	0.0
2017-08-17 18:04:19.820027	lat	lng	1.012451171875	-0.006103515625	-0.00439453125	-10.916030534351146	-1.8778625954198473	0.42748091603053434	0.0	0.0	0.0
2017-08-17 18:04:19.837037	lat	lng	1.01220703125	-0.005126953125	-0.026611328125	-9.297709923664122	0.2595419847328244	-0.6106870229007634	0.0	0.0	0.0
2017-08-17 18:04:19.853451	lat	lng	1.018798828125	-0.00146484375	0.01123046875	-5.679389312977099	3.954198473282443	-1.7404580152671756	0.0	0.0	0.0
2017-08-17 18:04:19.870537	lat	lng	1.020751953125	-0.0029296875	0.00244140625	-2.946564885496183	4.412213740458015	-2.366412213740458	0.0	0.0	0.0
2017-08-17 18:04:19.886955	lat	lng	1.017822265625	-0.00146484375	0.009765625	-0.12213740458015267	4.687022900763359	-2.4885496183206106	0.0	0.0	0.0
2017-08-17 18:04:19.904899	lat	lng	1.01708984375	0.000244140625	0.008544921875	1.3282442748091603	6.091603053435114	-3.435114503816794	0.0	0.0	0.0
2017-08-17 18:04:19.925803	lat	lng	1.022216796875	0.010009765625	0.030029296875	0.5038167938931297	7.358778625954199	-3.7404580152671754	0.0	0.0	0.0
2017-08-17 18:04:19.947192	lat	lng	1.0166015625	0.007080078125	0.027587890625	2.7022900763358777	8.045801526717558	-7.770992366412214	0.0	0.0	0.0
2017-08-17 18:04:19.969333	lat	lng	1.01953125	0.007568359375	0.03076171875	2.8244274809160306	1.2671755725190839	-0.0916030534351145	0.0	0.0	0.0
2017-08-17 18:04:20.000587	lat	lng	1.017822265625	0.011474609375	0.034423828125	2.519083969465649	-0.4732824427480916	0.6870229007633588	0.0	0.0	0.0
2017-08-17 18:04:20.022206	lat	lng	1.01318359375	0.013671875	0.02685546875	2.122137404580153	-1.0076335877862594	1.083969465648855	0.0	0.0	0.0
2017-08-17 18:04:20.043757	lat	lng	1.014892578125	0.00927734375	0.02734375	2.030534351145038	-2.687022900763359	2.2442748091603053	0.0	0.0	0.0
2017-08-17 18:04:20.065623	lat	lng	1.013916015625	0.007568359375	0.0283203125	2.366412213740458	-1.7404580152671756	1.633587786259542	0.0	0.0	0.0
2017-08-17 18:04:20.087597	lat	lng	1.01708984375	0.004150390625	0.025390625	2.595419847328244	-0.9923664122137404	1.2061068702290076	0.0	0.0	0.0
2017-08-17 18:04:20.108928	lat	lng	1.01611328125	0.0078125	0.026611328125	2.8244274809160306	-0.5648854961832062	0.8549618320610687	0.0	0.0	0.0
2017-08-17 18:04:20.130167	lat	lng	1.0166015625	0.012939453125	0.020263671875	2.732824427480916	0.07633587786259542	0.48854961832061067	0.0	0.0	0.0
2017-08-17 18:04:20.152149	lat	lng	1.017822265625	0.00830078125	0.023193359375	2.564885496183206	-0.3053435114503817	0.7175572519083969	0.0	0.0	0.0
2017-08-17 18:04:20.173672	lat	lng	1.01513671875	0.00439453125	0.02099609375	2.564885496183206	-0.2595419847328244	0.6259541984732825	0.0	0.0	0.0
2017-08-17 18:04:20.198394	lat	lng	1.01416015625	0.0087890625	0.028076171875	2.4122137404580153	-1.5419847328244274	1.7251908396946565	0.0	0.0	0.0
2017-08-17 18:04:20.219219	lat	lng	1.0166015625	0.01123046875	0.026123046875	2.564885496183206	-2.015267175572519	1.83206106870229	0.0	0.0	0.0
2017-08-17 18:04:20.240009	lat	lng	1.0166015625	0.00390625	0.0224609375	2.6106870229007635	-0.42748091603053434	0.9770992366412213	0.0	0.0	0.0
2017-08-17 18:04:20.260251	lat	lng	1.017822265625	0.0009765625	0.019775390625	2.6259541984732824	3.3282442748091605	-1.3282442748091603	0.0	0.0	0.0
2017-08-17 18:04:20.280985	lat	lng	1.01904296875	0.009765625	0.02294921875	2.8244274809160306	4.763358778625954	-2.4885496183206106	0.0	0.0	0.0
2017-08-17 18:04:20.304552	lat	lng	1.01953125	0.011962890625	0.030517578125	2.6717557251908395	4.183206106870229	-2.045801526717557	0.0	0.0	0.0
2017-08-17 18:04:20.322890	lat	lng	1.011962890625	0.0107421875	0.03369140625	2.549618320610687	1.2671755725190839	0.061068702290076333	0.0	0.0	0.0
2017-08-17 18:04:20.340381	lat	lng	1.015380859375	0.009521484375	0.027587890625	2.946564885496183	-0.13740458015267176	0.7175572519083969	0.0	0.0	0.0
2017-08-17 18:04:20.358915	lat	lng	1.01708984375	0.011474609375	0.028076171875	2.687022900763359	-0.22900763358778625	0.6106870229007634	0.0	0.0	0.0
2017-08-17 18:04:20.376806	lat	lng	1.01513671875	0.0107421875	0.023681640625	2.519083969465649	0.24427480916030533	0.8091603053435115	0.0	0.0	0.0
2017-08-17 18:04:20.395097	lat	lng	1.0166015625	0.010498046875	0.0234375	2.732824427480916	0.21374045801526717	0.5343511450381679	0.0	0.0	0.0
2017-08-17 18:04:20.412855	lat	lng	1.015625	0.009033203125	0.02978515625	2.6259541984732824	0.12213740458015267	0.48854961832061067	0.0	0.0	0.0
2017-08-17 18:04:20.431149	lat	lng	1.017333984375	0.013671875	0.026123046875	2.519083969465649	0.13740458015267176	0.6564885496183206	0.0	0.0	0.0
2017-08-17 18:04:20.448915	lat	lng	1.01611328125	0.0126953125	0.001220703125	2.717557251908397	-0.2748091603053435	0.7480916030534351	0.0	0.0	0.0
2017-08-17 18:04:20.466674	lat	lng	1.016845703125	0.009033203125	0.02978515625	2.8702290076335877	-1.633587786259542	1.2366412213740459	0.0	0.0	0.0
2017-08-17 18:04:20.490362	lat	lng	1.016357421875	0.0107421875	0.02685546875	2.5343511450381677	-3.450381679389313	2.595419847328244	0.0	0.0	0.0
2017-08-17 18:04:20.508212	lat	lng	1.017578125	0.00390625	0.025146484375	2.8091603053435112	-6.061068702290076	4.076335877862595	0.0	0.0	0.0
2017-08-17 18:04:20.532035	lat	lng	1.019775390625	0.00244140625	0.0068359375	6.244274809160306	-8.732824427480915	5.694656488549619	0.0	0.0	0.0
2017-08-17 18:04:20.549066	lat	lng	1.020751953125	0.006103515625	0.015869140625	8.335877862595419	-7.862595419847328	8.13740458015267	0.0	0.0	0.0
2017-08-17 18:04:20.565659	lat	lng	1.019287109375	-0.0048828125	0.008544921875	11.725190839694656	-19.633587786259543	13.465648854961833	0.0	0.0	0.0
2017-08-17 18:04:20.582160	lat	lng	1.083251953125	0.03564453125	0.057861328125	5.145038167938932	-15.770992366412214	22.427480916030536	0.0	0.0	0.0
2017-08-17 18:04:20.599634	lat	lng	1.004638671875	0.011962890625	0.036865234375	-11.297709923664122	19.267175572519083	16.671755725190838	0.0	0.0	0.0
2017-08-17 18:04:20.616165	lat	lng	1.041259765625	-0.103271484375	-0.0302734375	-10.381679389312977	39.847328244274806	25.862595419847327	0.0	0.0	0.0
2017-08-17 18:04:20.632639	lat	lng	1.079833984375	-0.092529296875	0.01611328125	-14.458015267175572	41.20610687022901	40.0763358778626	0.0	0.0	0.0
2017-08-17 18:04:20.649049	lat	lng	0.993408203125	-0.031982421875	0.007080078125	-16.717557251908396	33.06870229007634	47.786259541984734	0.0	0.0	0.0
2017-08-17 18:04:20.665555	lat	lng	1.0302734375	-0.135986328125	0.025634765625	-25.893129770992367	32.412213740458014	55.61832061068702	0.0	0.0	0.0
2017-08-17 18:04:20.681889	lat	lng	0.94091796875	-0.049072265625	0.0732421875	-12.992366412213741	18.15267175572519	46.030534351145036	0.0	0.0	0.0
2017-08-17 18:04:20.698343	lat	lng	1.004638671875	-0.06201171875	0.07470703125	-12.702290076335878	4.854961832061068	49.267175572519086	0.0	0.0	0.0
2017-08-17 18:04:20.714801	lat	lng	1.04736328125	-0.053466796875	0.10302734375	-11.435114503816793	7.465648854961832	55.847328244274806	0.0	0.0	0.0
2017-08-17 18:04:20.731310	lat	lng	1.01904296875	-0.10205078125	0.070068359375	-8.82442748091603	-2.351145038167939	68.33587786259542	0.0	0.0	0.0
2017-08-17 18:04:20.747651	lat	lng	1.02197265625	-0.13720703125	0.042724609375	-10.274809160305344	2.763358778625954	76.13740458015268	0.0	0.0	0.0
2017-08-17 18:04:20.764059	lat	lng	0.998291015625	-0.1123046875	0.072509765625	3.1755725190839694	-4.564885496183206	73.54198473282443	0.0	0.0	0.0
2017-08-17 18:04:20.780399	lat	lng	1.00927734375	-0.166259765625	0.039306640625	-2.045801526717557	7.633587786259542	78.61068702290076	0.0	0.0	0.0
2017-08-17 18:04:20.796775	lat	lng	0.98486328125	-0.1787109375	0.0751953125	2.4885496183206106	0.015267175572519083	74.0	0.0	0.0	0.0
2017-08-17 18:04:20.813129	lat	lng	0.97607421875	-0.190673828125	0.0751953125	-1.6793893129770991	-8.076335877862595	72.82442748091603	0.0	0.0	0.0
2017-08-17 18:04:20.829561	lat	lng	0.983642578125	-0.249267578125	0.035888671875	-2.7022900763358777	-14.351145038167939	75.64885496183206	0.0	0.0	0.0
2017-08-17 18:04:20.846041	lat	lng	0.97021484375	-0.287841796875	0.02099609375	-3.66412213740458	-18.442748091603054	85.95419847328245	0.0	0.0	0.0
2017-08-17 18:04:20.862513	lat	lng	1.017333984375	-0.2666015625	0.09716796875	-9.786259541984732	-18.0	95.78625954198473	0.0	0.0	0.0
2017-08-17 18:04:20.878923	lat	lng	0.911376953125	-0.24951171875	-0.01220703125	-23.87786259541985	-19.87786259541985	110.82442748091603	0.0	0.0	0.0
2017-08-17 18:04:20.895468	lat	lng	0.91845703125	-0.308837890625	0.075927734375	-27.14503816793893	-36.82442748091603	103.23664122137404	0.0	0.0	0.0
2017-08-17 18:04:20.913959	lat	lng	0.8994140625	-0.338134765625	0.0478515625	-33.038167938931295	-33.63358778625954	82.22900763358778	0.0	0.0	0.0
2017-08-17 18:04:20.934432	lat	lng	0.722412109375	-0.761962890625	-0.112060546875	-40.6412213740458	-2.9770992366412212	86.10687022900764	0.0	0.0	0.0
2017-08-17 18:04:20.954892	lat	lng	1.2080078125	-0.671875	-0.01318359375	-38.68702290076336	1.3740458015267176	135.17557251908397	0.0	0.0	0.0
2017-08-17 18:04:20.975327	lat	lng	0.970703125	-0.43310546875	0.085693359375	-66.8854961832061	37.00763358778626	161.80152671755727	0.0	0.0	0.0
2017-08-17 18:04:20.995797	lat	lng	0.72900390625	-0.5888671875	0.0283203125	-100.19847328244275	64.73282442748092	184.41221374045801	0.0	0.0	0.0
2017-08-17 18:04:21.016323	lat	lng	0.937255859375	-0.450927734375	0.196044921875	-135.49618320610688	125.87786259541984	182.12213740458014	0.0	0.0	0.0
2017-08-17 18:04:21.036784	lat	lng	0.56005859375	-0.657470703125	-0.17919921875	-74.13740458015268	66.3206106870229	91.8473282442748	0.0	0.0	0.0
2017-08-17 18:04:21.057276	lat	lng	0.686279296875	-0.6953125	-0.087158203125	-43.221374045801525	29.221374045801525	63.05343511450382	0.0	0.0	0.0
2017-08-17 18:04:21.077711	lat	lng	0.693603515625	-0.643798828125	-0.07861328125	-53.49618320610687	45.770992366412216	83.58778625954199	0.0	0.0	0.0
2017-08-17 18:04:21.099631	lat	lng	0.704833984375	-0.61181640625	-0.001953125	-26.38167938931298	20.68702290076336	52.94656488549618	0.0	0.0	0.0
2017-08-17 18:04:21.120151	lat	lng	0.74951171875	-0.7138671875	-0.000732421875	-31.61832061068702	41.099236641221374	56.961832061068705	0.0	0.0	0.0
2017-08-17 18:04:21.142224	lat	lng	0.608154296875	-0.74951171875	-0.001953125	-28.9618320610687	24.671755725190838	41.221374045801525	0.0	0.0	0.0
2017-08-17 18:04:21.162628	lat	lng	0.7236328125	-0.697509765625	0.021484375	-29.52671755725191	26.68702290076336	31.87786259541985	0.0	0.0	0.0
2017-08-17 18:04:21.182977	lat	lng	0.67578125	-0.741455078125	-0.045166015625	-26.427480916030536	20.564885496183205	27.633587786259543	0.0	0.0	0.0
2017-08-17 18:04:21.203399	lat	lng	0.68212890625	-0.740234375	-0.058837890625	-8.16793893129771	8.381679389312977	22.53435114503817	0.0	0.0	0.0
2017-08-17 18:04:21.223935	lat	lng	0.697021484375	-0.732421875	-0.020263671875	6.396946564885496	-5.251908396946565	23.64885496183206	0.0	0.0	0.0
2017-08-17 18:04:21.246446	lat	lng	0.6640625	-0.7490234375	-0.031494140625	20.442748091603054	-23.374045801526716	31.374045801526716	0.0	0.0	0.0
2017-08-17 18:04:21.270050	lat	lng	0.67333984375	-0.751220703125	-0.03271484375	15.954198473282442	-18.47328244274809	36.778625954198475	0.0	0.0	0.0
2017-08-17 18:04:21.294622	lat	lng	0.69189453125	-0.7412109375	0.013916015625	7.251908396946565	3.6793893129770994	46.732824427480914	0.0	0.0	0.0
2017-08-17 18:04:21.318752	lat	lng	0.65283203125	-0.763427734375	-0.0078125	-6.442748091603053	23.068702290076335	51.12977099236641	0.0	0.0	0.0
2017-08-17 18:04:21.342307	lat	lng	0.57763671875	-0.788330078125	-0.0107421875	3.236641221374046	1.8015267175572518	64.35114503816794	0.0	0.0	0.0
2017-08-17 18:04:21.366791	lat	lng	0.572998046875	-0.802734375	0.011962890625	30.47328244274809	-8.732824427480915	94.35114503816794	0.0	0.0	0.0
2017-08-17 18:04:21.389683	lat	lng	0.500244140625	-0.81396484375	0.036865234375	5.358778625954199	2.717557251908397	76.68702290076335	0.0	0.0	0.0
2017-08-17 18:04:21.416065	lat	lng	0.438720703125	-0.84521484375	0.02880859375	5.908396946564886	-17.480916030534353	54.88549618320611	0.0	0.0	0.0
2017-08-17 18:04:21.440672	lat	lng	0.538818359375	-0.840087890625	0.017578125	14.16793893129771	-22.427480916030536	57.43511450381679	0.0	0.0	0.0
2017-08-17 18:04:21.463761	lat	lng	0.393310546875	-0.904296875	0.001708984375	2.7938931297709924	-31.541984732824428	69.1145038167939	0.0	0.0	0.0
2017-08-17 18:04:21.488149	lat	lng	0.4775390625	-0.877685546875	-0.008544921875	-7.938931297709924	12.259541984732824	62.656488549618324	0.0	0.0	0.0
2017-08-17 18:04:21.511639	lat	lng	0.423583984375	-0.911865234375	0.083984375	-13.541984732824428	19.83206106870229	77.6030534351145	0.0	0.0	0.0
2017-08-17 18:04:21.535359	lat	lng	0.353515625	-0.831298828125	0.029541015625	-17.557251908396946	34.97709923664122	70.16793893129771	0.0	0.0	0.0
2017-08-17 18:04:21.558733	lat	lng	0.437255859375	-1.0302734375	0.00830078125	-12.778625954198473	37.29770992366412	107.09923664122137	0.0	0.0	0.0
2017-08-17 18:04:21.580707	lat	lng	0.429443359375	-0.9296875	-0.18310546875	-3.3435114503816794	16.106870229007633	90.7175572519084	0.0	0.0	0.0
2017-08-17 18:04:21.604590	lat	lng	0.442626953125	-0.94970703125	-0.02978515625	-2.9618320610687023	6.549618320610687	89.92366412213741	0.0	0.0	0.0
2017-08-17 18:04:21.627197	lat	lng	0.3271484375	-0.91162109375	-0.0537109375	3.145038167938931	-15.511450381679388	91.83206106870229	0.0	0.0	0.0
2017-08-17 18:04:21.649937	lat	lng	0.143798828125	-1.07763671875	-0.007568359375	1.7709923664122138	7.908396946564886	111.19083969465649	0.0	0.0	0.0
2017-08-17 18:04:21.670865	lat	lng	0.1435546875	-0.89208984375	-0.104736328125	-5.969465648854962	-13.98473282442748	94.04580152671755	0.0	0.0	0.0
2017-08-17 18:04:21.691828	lat	lng	0.08837890625	-1.016357421875	0.0185546875	8.916030534351146	-19.740458015267176	85.55725190839695	0.0	0.0	0.0
2017-08-17 18:04:21.713874	lat	lng	0.34912109375	-0.984619140625	-0.07958984375	4.732824427480916	1.3282442748091603	62.99236641221374	0.0	0.0	0.0
2017-08-17 18:04:21.734965	lat	lng	-0.028564453125	-0.992919921875	-0.105712890625	10.748091603053435	-29.267175572519083	51.343511450381676	0.0	0.0	0.0
2017-08-17 18:04:21.757161	lat	lng	0.001220703125	-0.946533203125	-0.081787109375	1.9694656488549618	-41.51145038167939	49.11450381679389	0.0	0.0	0.0
2017-08-17 18:04:21.779117	lat	lng	0.08251953125	-0.938232421875	-0.06396484375	3.633587786259542	-63.11450381679389	89.5114503816794	0.0	0.0	0.0
2017-08-17 18:04:21.800215	lat	lng	-0.02197265625	-0.962646484375	0.0185546875	-3.5114503816793894	-44.778625954198475	98.65648854961832	0.0	0.0	0.0
2017-08-17 18:04:21.820607	lat	lng	0.130126953125	-0.984375	0.03076171875	4.0458015267175576	-26.27480916030534	1.2366412213740459	0.0	0.0	0.0
2017-08-17 18:04:21.842747	lat	lng	0.064697265625	-0.98583984375	0.002197265625	-1.1908396946564885	-23.00763358778626	0.549618320610687	0.0	0.0	0.0
2017-08-17 18:04:21.863240	lat	lng	0.0185546875	-0.988037109375	-0.018310546875	1.2671755725190839	-39.7557251908397	0.4732824427480916	0.0	0.0	0.0
2017-08-17 18:04:21.883856	lat	lng	0.048095703125	-0.98486328125	-0.02734375	2.7480916030534353	-48.80916030534351	0.2900763358778626	0.0	0.0	0.0
2017-08-17 18:04:21.904057	lat	lng	0.0810546875	-0.95654296875	0.05078125	2.0	-48.030534351145036	1.465648854961832	0.0	0.0	0.0
2017-08-17 18:04:21.924429	lat	lng	0.04736328125	-0.98974609375	0.046630859375	4.351145038167939	-20.702290076335878	0.5343511450381679	0.0	0.0	0.0
2017-08-17 18:04:21.946579	lat	lng	0.042724609375	-0.9873046875	0.03271484375	2.900763358778626	-8.51908396946565	0.366412213740458	0.0	0.0	0.0
2017-08-17 18:04:21.968519	lat	lng	0.0087890625	-0.985107421875	0.002685546875	2.519083969465649	-6.8396946564885495	0.24427480916030533	0.0	0.0	0.0
2017-08-17 18:04:21.992054	lat	lng	0.022216796875	-0.990478515625	-0.01123046875	2.9160305343511452	0.1984732824427481	0.5190839694656488	0.0	0.0	0.0
2017-08-17 18:04:22.017527	lat	lng	0.016845703125	-0.987060546875	-0.0205078125	2.7480916030534353	-0.030534351145038167	0.6412213740458015	0.0	0.0	0.0
2017-08-17 18:04:22.042891	lat	lng	0.0087890625	-0.986328125	-0.015625	2.6564885496183206	0.16793893129770993	0.5190839694656488	0.0	0.0	0.0
2017-08-17 18:04:22.066146	lat	lng	0.01708984375	-0.989990234375	-0.0146484375	2.5801526717557253	-0.04580152671755725	0.3816793893129771	0.0	0.0	0.0
2017-08-17 18:04:22.088425	lat	lng	0.0166015625	-0.98779296875	-0.017333984375	2.4732824427480917	-0.0916030534351145	0.48854961832061067	0.0	0.0	0.0
2017-08-17 18:04:22.120062	lat	lng	0.019287109375	-0.984130859375	-0.01123046875	2.717557251908397	0.183206106870229	0.5801526717557252	0.0	0.0	0.0
2017-08-17 18:04:22.141983	lat	lng	0.01953125	-0.99169921875	-0.014892578125	2.7022900763358777	0.13740458015267176	0.5801526717557252	0.0	0.0	0.0
2017-08-17 18:04:22.170032	lat	lng	0.016845703125	-0.989501953125	-0.01220703125	2.763358778625954	0.16793893129770993	0.44274809160305345	0.0	0.0	0.0
2017-08-17 18:04:22.193543	lat	lng	0.01611328125	-0.986083984375	-0.015625	2.900763358778626	0.22900763358778625	0.48854961832061067	0.0	0.0	0.0
2017-08-17 18:04:22.217440	lat	lng	0.013916015625	-0.984619140625	-0.011962890625	2.519083969465649	-0.061068702290076333	0.6259541984732825	0.0	0.0	0.0
2017-08-17 18:04:22.239504	lat	lng	0.01953125	-0.98876953125	-0.01416015625	2.6259541984732824	0.015267175572519083	0.5648854961832062	0.0	0.0	0.0
2017-08-17 18:04:22.260857	lat	lng	0.015625	-0.9853515625	-0.01123046875	2.519083969465649	0.2595419847328244	0.5648854961832062	0.0	0.0	0.0
2017-08-17 18:04:22.281640	lat	lng	0.01318359375	-0.98828125	-0.01513671875	2.8396946564885495	0.07633587786259542	0.5801526717557252	0.0	0.0	0.0
2017-08-17 18:04:22.302404	lat	lng	0.014404296875	-0.984619140625	-0.0166015625	2.7022900763358777	-0.04580152671755725	0.5038167938931297	0.0	0.0	0.0
2017-08-17 18:04:22.323419	lat	lng	0.01220703125	-0.984130859375	-0.013916015625	2.564885496183206	-3.877862595419847	0.5801526717557252	0.0	0.0	0.0
2017-08-17 18:04:22.344409	lat	lng	0.017822265625	-0.989990234375	-0.012939453125	2.8396946564885495	-0.10687022900763359	0.6106870229007634	0.0	0.0	0.0
2017-08-17 18:04:22.365277	lat	lng	0.017822265625	-0.98779296875	-0.016845703125	2.7786259541984735	-0.04580152671755725	0.48854961832061067	0.0	0.0	0.0
2017-08-17 18:04:22.386186	lat	lng	0.017333984375	-0.986083984375	-0.01953125	2.5343511450381677	-0.13740458015267176	0.4122137404580153	0.0	0.0	0.0
2017-08-17 18:04:22.406329	lat	lng	0.0185546875	-0.985595703125	-0.009765625	2.8244274809160306	0.15267175572519084	0.7022900763358778	0.0	0.0	0.0
2017-08-17 18:04:22.426528	lat	lng	0.0146484375	-0.990234375	-0.020263671875	2.717557251908397	0.04580152671755725	0.48854961832061067	0.0	0.0	0.0
2017-08-17 18:04:22.446960	lat	lng	0.01611328125	-0.989013671875	-0.029052734375	2.931297709923664	0.21374045801526717	0.6717557251908397	0.0	0.0	0.0
2017-08-17 18:04:22.467168	lat	lng	0.016357421875	-0.986572265625	-0.0166015625	2.687022900763359	0.030534351145038167	0.6259541984732825	0.0	0.0	0.0
2017-08-17 18:04:22.487460	lat	lng	0.016845703125	-0.98828125	-0.014892578125	2.6259541984732824	0.1984732824427481	0.732824427480916	0.0	0.0	0.0
2017-08-17 18:04:22.507716	lat	lng	0.016845703125	-0.983154296875	-0.013427734375	2.946564885496183	3.8931297709923665	0.549618320610687	0.0	0.0	0.0
2017-08-17 18:04:22.527856	lat	lng	0.0146484375	-0.98583984375	-0.004150390625	2.717557251908397	0.2900763358778626	0.6412213740458015	0.0	0.0	0.0
2017-08-17 18:04:22.548623	lat	lng	0.015869140625	-0.9853515625	-0.0185546875	2.7022900763358777	-0.183206106870229	0.6412213740458015	0.0	0.0	0.0
2017-08-17 18:04:22.568942	lat	lng	0.017822265625	-0.9853515625	-0.016845703125	2.381679389312977	0.07633587786259542	0.5038167938931297	0.0	0.0	0.0
2017-08-17 18:04:22.589177	lat	lng	0.017333984375	-0.990478515625	-0.018310546875	2.366412213740458	0.2595419847328244	0.6412213740458015	0.0	0.0	0.0
2017-08-17 18:04:22.611322	lat	lng	0.017822265625	-0.983154296875	-0.015869140625	2.6717557251908395	0.061068702290076333	0.7633587786259542	0.0	0.0	0.0
2017-08-17 18:04:22.632800	lat	lng	0.012451171875	-0.989013671875	-0.01220703125	2.8396946564885495	0.0916030534351145	0.5801526717557252	0.0	0.0	0.0
2017-08-17 18:04:22.653147	lat	lng	0.017333984375	-0.983642578125	-0.020263671875	2.854961832061069	-0.10687022900763359	0.6106870229007634	0.0	0.0	0.0
2017-08-17 18:04:22.673824	lat	lng	0.0166015625	-0.989990234375	-0.014404296875	2.4732824427480917	0.07633587786259542	0.7022900763358778	0.0	0.0	0.0
2017-08-17 18:04:22.694477	lat	lng	-0.003662109375	-0.990234375	-0.0556640625	2.0916030534351147	-5.862595419847328	1.2671755725190839	0.0	0.0	0.0
2017-08-17 18:04:22.715207	lat	lng	0.009765625	-0.993408203125	-0.013427734375	2.1068702290076335	-10.15267175572519	2.4122137404580153	0.0	0.0	0.0
2017-08-17 18:04:22.736362	lat	lng	-0.02001953125	-0.973876953125	-0.02197265625	2.9618320610687023	-3.5877862595419847	18.65648854961832	0.0	0.0	0.0
2017-08-17 18:04:22.757106	lat	lng	0.006103515625	-1.0791015625	0.014404296875	3.6793893129770994	-3.068702290076336	27.984732824427482	0.0	0.0	0.0
2017-08-17 18:04:22.777875	lat	lng	0.010009765625	-0.95751953125	-0.02783203125	2.900763358778626	-4.99236641221374	32.35114503816794	0.0	0.0	0.0
2017-08-17 18:04:22.798603	lat	lng	-0.046630859375	-0.981689453125	-0.04736328125	-5.603053435114504	-17.49618320610687	29.00763358778626	0.0	0.0	0.0
2017-08-17 18:04:22.819285	lat	lng	-0.00439453125	-1.0302734375	-0.051513671875	2.0763358778625953	-20.595419847328245	28.3206106870229	0.0	0.0	0.0
2017-08-17 18:04:22.839976	lat	lng	0.068115234375	-1.050537109375	0.060791015625	0.2748091603053435	-8.763358778625955	45.61832061068702	0.0	0.0	0.0
2017-08-17 18:04:22.860549	lat	lng	0.02294921875	-1.087646484375	0.05029296875	-3.633587786259542	1.2213740458015268	62.97709923664122	0.0	0.0	0.0
2017-08-17 18:04:22.881106	lat	lng	-0.104248046875	-0.898193359375	-0.0263671875	0.3816793893129771	2.183206106870229	57.908396946564885	0.0	0.0	0.0
2017-08-17 18:04:22.901646	lat	lng	-0.140625	-1.016845703125	-0.11376953125	7.862595419847328	15.664122137404581	64.93129770992367	0.0	0.0	0.0
2017-08-17 18:04:22.922195	lat	lng	-0.1455078125	-1.0576171875	-0.069580078125	7.557251908396947	3.6946564885496183	57.69465648854962	0.0	0.0	0.0
2017-08-17 18:04:22.942959	lat	lng	-0.130126953125	-1.052734375	-0.009765625	6.305343511450381	5.3893129770992365	52.16793893129771	0.0	0.0	0.0
2017-08-17 18:04:22.963887	lat	lng	-0.15966796875	-0.958251953125	-0.066650390625	-1.4045801526717556	3.801526717557252	62.10687022900763	0.0	0.0	0.0
2017-08-17 18:04:22.986176	lat	lng	-0.161376953125	-1.128173828125	-0.076416015625	-11.297709923664122	22.0	126.19847328244275	0.0	0.0	0.0
2017-08-17 18:04:23.015919	lat	lng	-0.244873046875	-1.0439453125	-0.000732421875	-12.564885496183207	-1.786259541984733	119.66412213740458	0.0	0.0	0.0
2017-08-17 18:04:23.037460	lat	lng	-0.321533203125	-0.898681640625	-0.07080078125	-41.6793893129771	-17.358778625954198	106.38167938931298	0.0	0.0	0.0
2017-08-17 18:04:23.060393	lat	lng	-0.290283203125	-0.940185546875	0.07958984375	-35.23664122137404	-3.6030534351145036	89.06870229007633	0.0	0.0	0.0
2017-08-17 18:04:23.081830	lat	lng	-0.375732421875	-0.90087890625	-0.1083984375	-36.44274809160305	4.366412213740458	80.62595419847328	0.0	0.0	0.0
2017-08-17 18:04:23.105824	lat	lng	-0.382568359375	-0.897216796875	-0.11328125	-26.015267175572518	-0.13740458015267176	49.49618320610687	0.0	0.0	0.0
2017-08-17 18:04:23.129985	lat	lng	-0.417236328125	-0.889892578125	-0.250244140625	0.732824427480916	3.0839694656488548	46.916030534351144	0.0	0.0	0.0
2017-08-17 18:04:23.150995	lat	lng	-0.36572265625	-0.89453125	-0.11279296875	30.610687022900763	-5.297709923664122	47.38931297709924	0.0	0.0	0.0
2017-08-17 18:04:23.172380	lat	lng	-0.452880859375	-0.830078125	-0.02294921875	23.87786259541985	4.427480916030534	47.14503816793893	0.0	0.0	0.0
2017-08-17 18:04:23.194030	lat	lng	-0.4638671875	-0.8359375	-0.06982421875	12.16793893129771	2.549618320610687	38.961832061068705	0.0	0.0	0.0
2017-08-17 18:04:23.214863	lat	lng	-0.435302734375	-0.890625	-0.06982421875	4.5038167938931295	-2.2442748091603053	31.61832061068702	0.0	0.0	0.0
2017-08-17 18:04:23.240091	lat	lng	-0.4814453125	-0.85400390625	-0.09814453125	-2.7786259541984735	-12.488549618320612	30.641221374045802	0.0	0.0	0.0
2017-08-17 18:04:23.261817	lat	lng	-0.483154296875	-0.84765625	-0.08349609375	-12.213740458015268	-26.99236641221374	27.87786259541985	0.0	0.0	0.0
2017-08-17 18:04:23.283635	lat	lng	-0.4931640625	-0.843994140625	-0.03759765625	-15.786259541984732	-37.81679389312977	11.297709923664122	0.0	0.0	0.0
2017-08-17 18:04:23.305284	lat	lng	-0.428466796875	-0.890625	-0.067626953125	-10.335877862595419	-27.770992366412212	18.83969465648855	0.0	0.0	0.0
2017-08-17 18:04:23.327212	lat	lng	-0.746826171875	-0.569091796875	-0.28759765625	15.49618320610687	-21.0381679389313	27.984732824427482	0.0	0.0	0.0
2017-08-17 18:04:23.348120	lat	lng	-0.38427734375	-1.220947265625	0.369384765625	24.977099236641223	5.709923664122138	91.7557251908397	0.0	0.0	0.0
2017-08-17 18:04:23.371224	lat	lng	-0.709716796875	-0.708740234375	-0.0908203125	5.541984732824427	-35.32824427480916	42.213740458015266	0.0	0.0	0.0
2017-08-17 18:04:23.393381	lat	lng	-0.444091796875	-0.789794921875	-0.090087890625	24.27480916030534	-10.885496183206106	58.10687022900763	0.0	0.0	0.0
2017-08-17 18:04:23.426380	lat	lng	-0.60009765625	-0.779296875	-0.057861328125	17.81679389312977	-26.198473282442748	58.213740458015266	0.0	0.0	0.0
2017-08-17 18:04:23.448793	lat	lng	-0.579345703125	-0.775634765625	-0.00634765625	8.870229007633588	-20.870229007633586	48.94656488549618	0.0	0.0	0.0
2017-08-17 18:04:23.471870	lat	lng	-0.583740234375	-0.79931640625	0.01123046875	7.572519083969466	-15.312977099236642	57.80152671755725	0.0	0.0	0.0
2017-08-17 18:04:23.492596	lat	lng	-0.656005859375	-0.741943359375	-0.0029296875	7.862595419847328	-5.251908396946565	64.09160305343511	0.0	0.0	0.0
2017-08-17 18:04:23.517554	lat	lng	-0.6552734375	-0.7353515625	0.0078125	1.83206106870229	-1.083969465648855	62.458015267175576	0.0	0.0	0.0
2017-08-17 18:04:23.538895	lat	lng	-0.692138671875	-0.698486328125	-0.057373046875	-10.702290076335878	-20.366412213740457	53.404580152671755	0.0	0.0	0.0
2017-08-17 18:04:23.559608	lat	lng	-0.71337890625	-0.63525390625	-0.00732421875	-27.358778625954198	-53.7557251908397	40.0763358778626	0.0	0.0	0.0
2017-08-17 18:04:23.581224	lat	lng	-0.681396484375	-0.69580078125	0.0087890625	-16.916030534351144	-39.00763358778626	33.61832061068702	0.0	0.0	0.0
2017-08-17 18:04:23.602745	lat	lng	-0.716796875	-0.668212890625	0.02197265625	-12.320610687022901	-29.709923664122137	32.50381679389313	0.0	0.0	0.0
2017-08-17 18:04:23.623543	lat	lng	-0.685546875	-0.6806640625	0.04833984375	-12.83969465648855	-30.412213740458014	46.30534351145038	0.0	0.0	0.0
2017-08-17 18:04:23.645595	lat	lng	-0.6728515625	-0.6982421875	-0.016357421875	-22.213740458015266	-5.541984732824427	85.95419847328245	0.0	0.0	0.0
2017-08-17 18:04:23.666518	lat	lng	-0.79296875	-0.69140625	-0.150146484375	2.595419847328244	-18.946564885496183	30.748091603053435	0.0	0.0	0.0
2017-08-17 18:04:23.687958	lat	lng	-0.6904296875	-0.7158203125	-0.00390625	-7.847328244274809	-37.81679389312977	47.969465648854964	0.0	0.0	0.0
2017-08-17 18:04:23.712510	lat	lng	-0.767578125	-0.596435546875	0.0361328125	-0.6870229007633588	-17.34351145038168	50.152671755725194	0.0	0.0	0.0
2017-08-17 18:04:23.735841	lat	lng	-0.690673828125	-0.60888671875	0.162353515625	-4.290076335877862	-22.15267175572519	39.52671755725191	0.0	0.0	0.0
2017-08-17 18:04:23.762499	lat	lng	-0.711181640625	-0.526123046875	0.19384765625	-18.30534351145038	19.083969465648856	74.76335877862596	0.0	0.0	0.0
2017-08-17 18:04:23.783326	lat	lng	-0.804443359375	-0.54541015625	0.018310546875	5.786259541984733	37.64885496183206	32.74809160305343	0.0	0.0	0.0
2017-08-17 18:04:23.808244	lat	lng	-0.80419921875	-0.5732421875	-0.005859375	17.64885496183206	11.938931297709924	16.458015267175572	0.0	0.0	0.0
2017-08-17 18:04:23.831377	lat	lng	-0.802978515625	-0.555908203125	0.013671875	9.770992366412214	6.366412213740458	21.129770992366414	0.0	0.0	0.0
2017-08-17 18:04:23.852535	lat	lng	-0.794921875	-0.4755859375	0.12646484375	-6.244274809160306	21.404580152671755	41.12977099236641	0.0	0.0	0.0
2017-08-17 18:04:23.875068	lat	lng	-0.738037109375	-0.436279296875	0.18701171875	-29.633587786259543	32.30534351145038	91.25190839694656	0.0	0.0	0.0
2017-08-17 18:04:23.897643	lat	lng	-0.81640625	-0.379150390625	0.060791015625	-44.68702290076336	11.557251908396946	96.54961832061069	0.0	0.0	0.0
2017-08-17 18:04:23.922107	lat	lng	-0.888916015625	-0.48095703125	-0.08447265625	-46.29007633587786	-19.740458015267176	105.93893129770993	0.0	0.0	0.0
2017-08-17 18:04:23.945374	lat	lng	-0.876708984375	-0.42724609375	0.018310546875	-35.87786259541985	-23.404580152671755	95.54198473282443	0.0	0.0	0.0
2017-08-17 18:04:23.968701	lat	lng	-0.83544921875	-0.267822265625	-0.075927734375	-13.84732824427481	11.083969465648854	92.4885496183206	0.0	0.0	0.0
2017-08-17 18:04:23.995937	lat	lng	-0.868408203125	-0.427490234375	0.03515625	-12.183206106870228	46.06106870229008	109.20610687022901	0.0	0.0	0.0
2017-08-17 18:04:24.018159	lat	lng	-0.982177734375	-0.41064453125	-0.0478515625	16.03053435114504	16.793893129770993	110.19847328244275	0.0	0.0	0.0
2017-08-17 18:04:24.040286	lat	lng	-1.046630859375	-0.31298828125	-0.04150390625	31.801526717557252	14.870229007633588	98.7175572519084	0.0	0.0	0.0
2017-08-17 18:04:24.062303	lat	lng	-0.949462890625	-0.2109375	-0.125244140625	38.717557251908396	8.396946564885496	98.2442748091603	0.0	0.0	0.0
2017-08-17 18:04:24.084486	lat	lng	-0.93359375	-0.158203125	-0.048095703125	33.954198473282446	-6.885496183206107	87.70992366412214	0.0	0.0	0.0
2017-08-17 18:04:24.106788	lat	lng	-0.950439453125	-0.14453125	0.002197265625	7.206106870229007	4.412213740458015	69.89312977099236	0.0	0.0	0.0
2017-08-17 18:04:24.128906	lat	lng	-1.021484375	-0.15087890625	-0.0224609375	-6.061068702290076	-3.282442748091603	52.274809160305345	0.0	0.0	0.0
2017-08-17 18:04:24.151136	lat	lng	-0.941162109375	-0.169921875	-0.135009765625	9.465648854961833	-3.0839694656488548	53.49618320610687	0.0	0.0	0.0
2017-08-17 18:04:24.173194	lat	lng	-0.942138671875	-0.153076171875	-0.12060546875	26.641221374045802	10.80916030534351	68.30534351145039	0.0	0.0	0.0
2017-08-17 18:04:24.195375	lat	lng	-1.02880859375	-0.087890625	-0.099853515625	27.83206106870229	-11.022900763358779	63.267175572519086	0.0	0.0	0.0
2017-08-17 18:04:24.217626	lat	lng	-1.02294921875	-0.10791015625	-0.005615234375	15.86259541984733	5.6183206106870225	51.29770992366412	0.0	0.0	0.0
2017-08-17 18:04:24.239033	lat	lng	-0.984130859375	-0.054931640625	-0.0634765625	11.083969465648854	2.8396946564885495	46.36641221374046	0.0	0.0	0.0
2017-08-17 18:04:24.260332	lat	lng	-0.991943359375	-0.087158203125	-0.076904296875	1.83206106870229	-8.961832061068701	46.2442748091603	0.0	0.0	0.0
2017-08-17 18:04:24.281514	lat	lng	-0.864013671875	-0.129150390625	0.125244140625	-0.32061068702290074	7.862595419847328	62.961832061068705	0.0	0.0	0.0
2017-08-17 18:04:24.302710	lat	lng	-0.943359375	-0.029052734375	0.16650390625	-14.396946564885496	7.206106870229007	0.0916030534351145	0.0	0.0	0.0
2017-08-17 18:04:24.323938	lat	lng	-0.9814453125	-0.004150390625	-0.040283203125	17.450381679389313	-30.27480916030534	0.7175572519083969	0.0	0.0	0.0
2017-08-17 18:04:24.345405	lat	lng	-0.99853515625	0.011474609375	-0.047607421875	9.450381679389313	-7.938931297709924	0.2748091603053435	0.0	0.0	0.0
2017-08-17 18:04:24.367420	lat	lng	-0.985107421875	0.030517578125	-0.024658203125	11.114503816793894	-0.9770992366412213	0.7175572519083969	0.0	0.0	0.0
2017-08-17 18:04:24.389693	lat	lng	-0.985107421875	0.010986328125	-0.013427734375	2.717557251908397	3.3282442748091605	0.48854961832061067	0.0	0.0	0.0
2017-08-17 18:04:24.410920	lat	lng	-0.994140625	0.0166015625	-0.037353515625	2.427480916030534	1.9694656488549618	0.6564885496183206	0.0	0.0	0.0
2017-08-17 18:04:24.432086	lat	lng	-0.999267578125	0.015869140625	-0.089599609375	2.900763358778626	0.13740458015267176	0.32061068702290074	0.0	0.0	0.0
2017-08-17 18:04:24.453355	lat	lng	-0.982666015625	0.0185546875	-0.038818359375	2.9160305343511452	-0.6717557251908397	0.6412213740458015	0.0	0.0	0.0
2017-08-17 18:04:24.474604	lat	lng	-0.988037109375	0.0146484375	-0.034423828125	2.564885496183206	0.9007633587786259	0.6564885496183206	0.0	0.0	0.0
2017-08-17 18:04:24.495811	lat	lng	-0.9921875	0.013427734375	-0.029052734375	2.8244274809160306	0.9007633587786259	0.5954198473282443	0.0	0.0	0.0
2017-08-17 18:04:24.517092	lat	lng	-0.990966796875	0.0166015625	-0.035888671875	2.6412213740458017	0.07633587786259542	0.5190839694656488	0.0	0.0	0.0
2017-08-17 18:04:24.538442	lat	lng	-0.988037109375	0.01513671875	-0.031005859375	2.9160305343511452	-0.3969465648854962	0.7480916030534351	0.0	0.0	0.0
2017-08-17 18:04:24.559751	lat	lng	-0.988037109375	0.01611328125	-0.031005859375	2.6717557251908395	0.1984732824427481	0.5190839694656488	0.0	0.0	0.0
2017-08-17 18:04:24.581025	lat	lng	-0.99560546875	0.017578125	-0.041259765625	2.763358778625954	-0.7786259541984732	0.32061068702290074	0.0	0.0	0.0
2017-08-17 18:04:24.603249	lat	lng	-1.03759765625	-0.066650390625	-0.01171875	2.549618320610687	-4.931297709923665	1.282442748091603	0.0	0.0	0.0
2017-08-17 18:04:24.624443	lat	lng	-1.00048828125	0.00048828125	-0.04443359375	2.717557251908397	-6.198473282442748	2.2748091603053435	0.0	0.0	0.0
2017-08-17 18:04:24.646350	lat	lng	-0.978515625	0.016845703125	-0.027099609375	2.6717557251908395	-1.9694656488549618	0.5343511450381679	0.0	0.0	0.0
2017-08-17 18:04:24.667638	lat	lng	-0.996337890625	0.005126953125	-0.03125	2.50381679389313	-3.3587786259541983	0.5648854961832062	0.0	0.0	0.0
2017-08-17 18:04:24.689004	lat	lng	-0.986572265625	0.0107421875	-0.0205078125	2.7938931297709924	-2.7786259541984735	0.33587786259541985	0.0	0.0	0.0
2017-08-17 18:04:24.711942	lat	lng	-0.985595703125	0.017333984375	-0.018798828125	2.8244274809160306	2.33587786259542	0.5954198473282443	0.0	0.0	0.0
2017-08-17 18:04:24.734591	lat	lng	-0.990478515625	0.017333984375	-0.045654296875	2.732824427480916	-0.7938931297709924	0.732824427480916	0.0	0.0	0.0
2017-08-17 18:04:24.757190	lat	lng	-0.991455078125	0.018798828125	-0.029296875	2.549618320610687	-2.4427480916030535	0.7480916030534351	0.0	0.0	0.0
2017-08-17 18:04:24.779635	lat	lng	-0.9873046875	0.0146484375	-0.02392578125	2.6412213740458017	0.6412213740458015	0.7022900763358778	0.0	0.0	0.0
2017-08-17 18:04:24.802255	lat	lng	-0.98583984375	0.017333984375	-0.019287109375	2.7480916030534353	4.183206106870229	0.6564885496183206	0.0	0.0	0.0
2017-08-17 18:04:24.830067	lat	lng	-0.994873046875	0.01513671875	-0.03515625	2.595419847328244	5.526717557251908	0.8091603053435115	0.0	0.0	0.0
2017-08-17 18:04:24.852400	lat	lng	-0.9912109375	0.01904296875	-0.04150390625	2.5801526717557253	3.7709923664122136	0.6870229007633588	0.0	0.0	0.0
2017-08-17 18:04:24.878360	lat	lng	-0.993408203125	0.017822265625	-0.030517578125	2.5801526717557253	1.3282442748091603	0.5038167938931297	0.0	0.0	0.0
2017-08-17 18:04:24.900283	lat	lng	-0.991455078125	0.016357421875	-0.043701171875	2.595419847328244	1.786259541984733	0.3511450381679389	0.0	0.0	0.0
2017-08-17 18:04:24.922578	lat	lng	-0.991943359375	0.014404296875	-0.044189453125	2.549618320610687	-0.48854961832061067	0.3816793893129771	0.0	0.0	0.0
2017-08-17 18:04:24.957180	lat	lng	-0.99365234375	0.015380859375	-0.033935546875	2.763358778625954	-0.015267175572519083	0.6717557251908397	0.0	0.0	0.0
2017-08-17 18:04:24.980121	lat	lng	-0.99267578125	0.01708984375	-0.0361328125	2.687022900763359	-0.07633587786259542	0.549618320610687	0.0	0.0	0.0
2017-08-17 18:04:25.001212	lat	lng	-0.989013671875	0.016845703125	-0.03369140625	2.6717557251908395	0.24427480916030533	0.5038167938931297	0.0	0.0	0.0
2017-08-17 18:04:25.029802	lat	lng	-0.98974609375	0.015380859375	-0.04736328125	2.8702290076335877	-0.7480916030534351	0.4122137404580153	0.0	0.0	0.0
2017-08-17 18:04:25.050715	lat	lng	-0.989990234375	0.0146484375	-0.02880859375	2.6564885496183206	0.9618320610687023	0.24427480916030533	0.0	0.0	0.0
2017-08-17 18:04:25.074398	lat	lng	-0.9921875	0.01318359375	-0.03466796875	2.732824427480916	1.4198473282442747	0.48854961832061067	0.0	0.0	0.0
2017-08-17 18:04:25.096981	lat	lng	-0.9912109375	0.0166015625	-0.040771484375	2.595419847328244	0.3816793893129771	0.5648854961832062	0.0	0.0	0.0
2017-08-17 18:04:25.119977	lat	lng	-0.989990234375	0.019287109375	-0.033203125	2.5343511450381677	-0.015267175572519083	0.732824427480916	0.0	0.0	0.0
2017-08-17 18:04:25.144780	lat	lng	-0.98876953125	0.016845703125	-0.05810546875	2.4427480916030535	1.3893129770992367	0.5343511450381679	0.0	0.0	0.0
2017-08-17 18:04:25.179165	lat	lng	-0.995361328125	0.01123046875	-0.038818359375	2.6717557251908395	-2.2290076335877864	1.0381679389312977	0.0	0.0	0.0
2017-08-17 18:04:25.202965	lat	lng	-0.990234375	0.015625	-0.029052734375	2.732824427480916	-1.6030534351145038	0.6412213740458015	0.0	0.0	0.0
2017-08-17 18:04:25.224559	lat	lng	-0.98828125	0.016357421875	-0.030029296875	2.564885496183206	1.0076335877862594	0.3969465648854962	0.0	0.0	0.0
2017-08-17 18:04:25.246245	lat	lng	-0.99169921875	0.01708984375	-0.0400390625	2.4885496183206106	1.9694656488549618	0.4122137404580153	0.0	0.0	0.0
2017-08-17 18:04:25.264151	lat	lng	-0.992919921875	0.013916015625	-0.042724609375	2.5801526717557253	0.3816793893129771	0.32061068702290074	0.0	0.0	0.0
2017-08-17 18:04:25.281182	lat	lng	-0.9912109375	0.0126953125	-0.03857421875	2.7480916030534353	-0.8854961832061069	0.7938931297709924	0.0	0.0	0.0
2017-08-17 18:04:25.298840	lat	lng	-0.9873046875	0.01513671875	-0.03515625	2.5801526717557253	-0.3969465648854962	0.6564885496183206	0.0	0.0	0.0
2017-08-17 18:04:25.320112	lat	lng	-0.98974609375	0.01708984375	-0.033935546875	2.7938931297709924	0.366412213740458	0.6259541984732825	0.0	0.0	0.0
2017-08-17 18:04:25.337781	lat	lng	-0.99365234375	0.0166015625	-0.03515625	2.6106870229007635	0.2900763358778626	0.5038167938931297	0.0	0.0	0.0
2017-08-17 18:04:25.355791	lat	lng	-0.993408203125	0.007080078125	-0.039306640625	2.5801526717557253	-0.5038167938931297	0.6259541984732825	0.0	0.0	0.0
2017-08-17 18:04:25.373252	lat	lng	-0.992919921875	0.01123046875	-0.036865234375	2.4885496183206106	-0.9923664122137404	0.7175572519083969	0.0	0.0	0.0
2017-08-17 18:04:25.391766	lat	lng	-0.99267578125	0.016845703125	-0.031005859375	2.7786259541984735	-0.061068702290076333	0.3816793893129771	0.0	0.0	0.0
2017-08-17 18:04:25.409259	lat	lng	-0.99365234375	0.0185546875	-0.038818359375	2.6717557251908395	-0.4580152671755725	0.32061068702290074	0.0	0.0	0.0
2017-08-17 18:04:25.427934	lat	lng	-0.984375	0.019287109375	-0.031494140625	2.6412213740458017	0.6106870229007634	0.16793893129770993	0.0	0.0	0.0
2017-08-17 18:04:25.446166	lat	lng	-0.988037109375	0.010986328125	-0.002685546875	9.16030534351145	2.7480916030534353	0.16793893129770993	0.0	0.0	0.0
2017-08-17 18:04:25.464818	lat	lng	-0.98974609375	0.007568359375	-0.0029296875	4.595419847328245	7.267175572519084	-0.7786259541984732	0.0	0.0	0.0
2017-08-17 18:04:25.481730	lat	lng	-0.9912109375	0.01611328125	-0.034912109375	2.50381679389313	12.534351145038167	0.32061068702290074	0.0	0.0	0.0
2017-08-17 18:04:25.504095	lat	lng	-0.928466796875	-0.037353515625	0.151611328125	-18.85496183206107	-8.931297709923664	0.3511450381679389	0.0	0.0	0.0
2017-08-17 18:04:25.521319	lat	lng	-0.826416015625	0.30810546875	0.2314453125	14.83969465648855	-9.19083969465649	0.21374045801526717	0.0	0.0	0.0
2017-08-17 18:04:25.539030	lat	lng	-1.002197265625	0.028076171875	-0.0732421875	2.7480916030534353	1.3435114503816794	0.3053435114503817	0.0	0.0	0.0
2017-08-17 18:04:25.556112	lat	lng	-0.997314453125	0.0283203125	-0.02978515625	2.595419847328244	-1.5114503816793894	0.42748091603053434	0.0	0.0	0.0
2017-08-17 18:04:25.573992	lat	lng	-0.99169921875	0.024169921875	-0.0419921875	2.885496183206107	-6.152671755725191	0.48854961832061067	0.0	0.0	0.0
2017-08-17 18:04:25.591155	lat	lng	-0.988525390625	0.014404296875	-0.004150390625	2.9618320610687023	-6.824427480916031	0.4580152671755725	0.0	0.0	0.0
2017-08-17 18:04:25.610331	lat	lng	-0.984375	0.014892578125	-0.0126953125	2.6717557251908395	-0.7022900763358778	0.48854961832061067	0.0	0.0	0.0
2017-08-17 18:04:25.627471	lat	lng	-0.98828125	0.005859375	-0.00927734375	2.6717557251908395	2.045801526717557	0.6870229007633588	0.0	0.0	0.0
2017-08-17 18:04:25.645411	lat	lng	-0.98388671875	0.014892578125	0.00439453125	2.7022900763358777	8.82442748091603	0.44274809160305345	0.0	0.0	0.0
2017-08-17 18:04:25.662406	lat	lng	-0.97314453125	0.00830078125	-0.031982421875	2.3206106870229006	10.427480916030534	0.3969465648854962	0.0	0.0	0.0
2017-08-17 18:04:25.684831	lat	lng	-1.033447265625	0.027099609375	-0.068115234375	2.50381679389313	10.183206106870228	0.3511450381679389	0.0	0.0	0.0
2017-08-17 18:04:25.702502	lat	lng	-0.951416015625	0.0146484375	-0.05126953125	2.6106870229007635	0.13740458015267176	0.4580152671755725	0.0	0.0	0.0
2017-08-17 18:04:25.719814	lat	lng	-1.010009765625	0.02880859375	-0.03662109375	2.7480916030534353	-0.9465648854961832	0.3053435114503817	0.0	0.0	0.0
2017-08-17 18:04:25.736342	lat	lng	-0.97412109375	0.007080078125	-0.050537109375	2.7938931297709924	-5.32824427480916	0.6106870229007634	0.0	0.0	0.0
2017-08-17 18:04:25.753400	lat	lng	-0.998046875	0.017578125	-0.0244140625	2.900763358778626	-7.038167938931298	0.916030534351145	0.0	0.0	0.0
2017-08-17 18:04:25.769770	lat	lng	-0.9736328125	0.015380859375	-0.0234375	2.8091603053435112	-4.595419847328245	0.6564885496183206	0.0	0.0	0.0
2017-08-17 18:04:25.786882	lat	lng	-0.9833984375	0.02099609375	-0.0126953125	2.6259541984732824	0.9007633587786259	0.5038167938931297	0.0	0.0	0.0
2017-08-17 18:04:25.803302	lat	lng	-0.987060546875	0.015380859375	-0.026123046875	2.6412213740458017	3.1755725190839694	0.4580152671755725	0.0	0.0	0.0
2017-08-17 18:04:25.824674	lat	lng	-0.996826171875	0.01513671875	-0.042724609375	2.564885496183206	3.099236641221374	0.6412213740458015	0.0	0.0	0.0
2017-08-17 18:04:25.841040	lat	lng	-0.995361328125	0.0126953125	-0.043701171875	2.732824427480916	-1.099236641221374	0.5801526717557252	0.0	0.0	0.0
2017-08-17 18:04:25.858397	lat	lng	-0.9990234375	0.01611328125	-0.048095703125	2.549618320610687	-4.061068702290076	0.8396946564885496	0.0	0.0	0.0
2017-08-17 18:04:25.874898	lat	lng	-0.9912109375	0.0146484375	-0.0244140625	2.717557251908397	-5.923664122137405	0.6870229007633588	0.0	0.0	0.0
2017-08-17 18:04:25.892403	lat	lng	-0.99072265625	0.02099609375	-0.027099609375	2.6412213740458017	-5.679389312977099	0.6717557251908397	0.0	0.0	0.0
2017-08-17 18:04:25.908833	lat	lng	-0.98974609375	0.0185546875	-0.016357421875	2.549618320610687	-4.106870229007634	0.6717557251908397	0.0	0.0	0.0
2017-08-17 18:04:25.926444	lat	lng	-0.986328125	0.01708984375	-0.017333984375	2.4732824427480917	-1.3129770992366412	0.6412213740458015	0.0	0.0	0.0
2017-08-17 18:04:25.942986	lat	lng	-0.98876953125	0.018798828125	-0.023681640625	2.50381679389313	0.21374045801526717	0.5801526717557252	0.0	0.0	0.0
2017-08-17 18:04:25.963379	lat	lng	-0.9892578125	0.019775390625	-0.025146484375	2.6106870229007635	-0.2595419847328244	0.5648854961832062	0.0	0.0	0.0
2017-08-17 18:04:25.995362	lat	lng	-0.987060546875	0.016845703125	-0.018798828125	2.6412213740458017	2.519083969465649	0.3053435114503817	0.0	0.0	0.0
2017-08-17 18:04:26.019315	lat	lng	-0.989013671875	0.02197265625	-0.0302734375	2.564885496183206	5.816793893129771	0.6564885496183206	0.0	0.0	0.0
2017-08-17 18:04:26.042920	lat	lng	-0.98974609375	0.0166015625	-0.018310546875	2.6106870229007635	8.687022900763358	0.549618320610687	0.0	0.0	0.0
2017-08-17 18:04:26.065229	lat	lng	-1.0068359375	0.01708984375	-0.080322265625	2.50381679389313	5.847328244274809	0.3969465648854962	0.0	0.0	0.0
2017-08-17 18:04:26.089974	lat	lng	-0.99169921875	0.01513671875	-0.043212890625	2.7480916030534353	1.1755725190839694	0.6259541984732825	0.0	0.0	0.0
2017-08-17 18:04:26.114155	lat	lng	-0.9794921875	0.010986328125	-0.09326171875	-1.1603053435114503	-0.9007633587786259	0.4580152671755725	0.0	0.0	0.0
2017-08-17 18:04:26.135384	lat	lng	-0.989013671875	0.014892578125	-0.03662109375	2.519083969465649	-0.061068702290076333	0.5343511450381679	0.0	0.0	0.0
2017-08-17 18:04:26.157110	lat	lng	-1.021240234375	0.03759765625	-0.05029296875	-24.091603053435115	-9.679389312977099	-0.3969465648854962	0.0	0.0	0.0
2017-08-17 18:04:26.178122	lat	lng	-0.994873046875	0.0029296875	-0.04736328125	-7.022900763358779	-2.4122137404580153	0.48854961832061067	0.0	0.0	0.0
2017-08-17 18:04:26.199512	lat	lng	-0.99267578125	0.009765625	-0.022705078125	-1.786259541984733	-2.3969465648854964	0.4732824427480916	0.0	0.0	0.0
2017-08-17 18:04:26.220660	lat	lng	-0.98828125	0.077880859375	-0.044189453125	2.4427480916030535	1.3282442748091603	0.549618320610687	0.0	0.0	0.0
2017-08-17 18:04:26.244104	lat	lng	-0.989990234375	0.015625	-0.04052734375	2.7786259541984735	0.5343511450381679	0.6412213740458015	0.0	0.0	0.0
2017-08-17 18:04:26.262796	lat	lng	-0.99560546875	0.01953125	-0.0458984375	2.7022900763358777	-2.687022900763359	0.5190839694656488	0.0	0.0	0.0
2017-08-17 18:04:26.279999	lat	lng	-0.995849609375	0.013671875	-0.039794921875	2.9770992366412212	-7.129770992366412	0.7480916030534351	0.0	0.0	0.0
2017-08-17 18:04:26.296639	lat	lng	-0.9873046875	0.01611328125	-0.0263671875	2.7022900763358777	-7.282442748091603	0.6870229007633588	0.0	0.0	0.0
2017-08-17 18:04:26.316807	lat	lng	-0.989013671875	0.0068359375	-0.014892578125	2.763358778625954	-3.8931297709923665	0.5648854961832062	0.0	0.0	0.0
2017-08-17 18:04:26.333562	lat	lng	-0.986328125	0.017578125	-0.025390625	2.7022900763358777	-0.366412213740458	0.5190839694656488	0.0	0.0	0.0
2017-08-17 18:04:26.351114	lat	lng	-0.991455078125	0.015625	-0.030029296875	2.595419847328244	-0.16793893129770993	0.6412213740458015	0.0	0.0	0.0
2017-08-17 18:04:26.367841	lat	lng	-0.9912109375	0.016845703125	-0.0322265625	2.595419847328244	-1.7557251908396947	0.5801526717557252	0.0	0.0	0.0
2017-08-17 18:04:26.385815	lat	lng	-0.98828125	0.01953125	-0.027587890625	2.2900763358778624	-2.0610687022900764	0.6717557251908397	0.0	0.0	0.0
2017-08-17 18:04:26.402455	lat	lng	-0.99365234375	0.0166015625	-0.026123046875	2.687022900763359	-0.5343511450381679	0.44274809160305345	0.0	0.0	0.0
2017-08-17 18:04:26.425990	lat	lng	-0.99072265625	0.017333984375	-0.01806640625	2.6717557251908395	-0.15267175572519084	0.5190839694656488	0.0	0.0	0.0
2017-08-17 18:04:26.443071	lat	lng	-0.99072265625	0.014404296875	-0.03125	2.6412213740458017	-0.4732824427480916	0.3816793893129771	0.0	0.0	0.0
2017-08-17 18:04:26.460293	lat	lng	-0.990966796875	0.017333984375	-0.02099609375	2.595419847328244	-0.16793893129770993	0.5648854961832062	0.0	0.0	0.0
2017-08-17 18:04:26.477266	lat	lng	-0.990478515625	0.016845703125	-0.013916015625	2.854961832061069	0.6412213740458015	0.6259541984732825	0.0	0.0	0.0
2017-08-17 18:04:26.494541	lat	lng	-0.990966796875	0.01611328125	-0.02099609375	2.7022900763358777	1.2671755725190839	0.42748091603053434	0.0	0.0	0.0
2017-08-17 18:04:26.511464	lat	lng	-0.990234375	0.01953125	-0.020263671875	2.7480916030534353	2.045801526717557	0.4580152671755725	0.0	0.0	0.0
2017-08-17 18:04:26.528525	lat	lng	-0.990478515625	0.017333984375	-0.019775390625	2.687022900763359	2.8702290076335877	0.4580152671755725	0.0	0.0	0.0
2017-08-17 18:04:26.545354	lat	lng	-0.989501953125	0.0126953125	-0.02490234375	2.8396946564885495	3.6793893129770994	0.6564885496183206	0.0	0.0	0.0
2017-08-17 18:04:26.564105	lat	lng	-0.994384765625	0.017333984375	-0.036376953125	2.564885496183206	1.5572519083969465	0.4122137404580153	0.0	0.0	0.0
2017-08-17 18:04:26.582134	lat	lng	-0.993408203125	0.017333984375	-0.03076171875	2.564885496183206	-0.13740458015267176	0.6412213740458015	0.0	0.0	0.0
2017-08-17 18:04:26.601451	lat	lng	-0.990234375	0.011474609375	-0.03076171875	2.717557251908397	1.2061068702290076	0.5954198473282443	0.0	0.0	0.0
2017-08-17 18:04:26.620165	lat	lng	-0.9873046875	0.01220703125	-0.03173828125	2.7022900763358777	2.33587786259542	0.5648854961832062	0.0	0.0	0.0
2017-08-17 18:04:26.638846	lat	lng	-0.990234375	0.018798828125	-0.031494140625	2.7022900763358777	1.3282442748091603	0.5648854961832062	0.0	0.0	0.0
2017-08-17 18:04:26.656479	lat	lng	-0.990478515625	0.01953125	-0.0302734375	2.5801526717557253	0.42748091603053434	0.5648854961832062	0.0	0.0	0.0
2017-08-17 18:04:26.673565	lat	lng	-0.991455078125	0.017822265625	-0.03125	2.8244274809160306	-0.3053435114503817	0.549618320610687	0.0	0.0	0.0
2017-08-17 18:04:26.691170	lat	lng	-0.9931640625	0.015625	-0.0322265625	2.5343511450381677	-0.24427480916030533	0.5648854961832062	0.0	0.0	0.0
2017-08-17 18:04:26.707449	lat	lng	-0.993896484375	0.017822265625	-0.030517578125	2.687022900763359	-0.4122137404580153	0.366412213740458	0.0	0.0	0.0
2017-08-17 18:04:26.732507	lat	lng	-0.990478515625	0.01416015625	-0.033203125	2.5801526717557253	-0.3511450381679389	0.6564885496183206	0.0	0.0	0.0
2017-08-17 18:04:26.749627	lat	lng	-0.9921875	0.014404296875	-0.02880859375	2.6412213740458017	-0.4580152671755725	0.6412213740458015	0.0	0.0	0.0
2017-08-17 18:04:26.772105	lat	lng	-0.990966796875	0.017822265625	-0.027099609375	2.717557251908397	-0.030534351145038167	0.5801526717557252	0.0	0.0	0.0
2017-08-17 18:04:26.791672	lat	lng	-0.993408203125	0.019775390625	-0.03466796875	2.7786259541984735	0.030534351145038167	0.5343511450381679	0.0	0.0	0.0
2017-08-17 18:04:26.808377	lat	lng	-1.00146484375	-0.017578125	-0.011962890625	7.312977099236641	-1.282442748091603	0.732824427480916	0.0	0.0	0.0
2017-08-17 18:04:26.825205	lat	lng	-0.9921875	0.0224609375	-0.025146484375	3.2519083969465647	1.3282442748091603	0.5343511450381679	0.0	0.0	0.0
2017-08-17 18:04:26.842148	lat	lng	-0.990478515625	0.016845703125	-0.022216796875	2.7022900763358777	1.0229007633587786	0.3969465648854962	0.0	0.0	0.0
2017-08-17 18:04:26.858501	lat	lng	-0.990478515625	0.01611328125	-0.031005859375	2.7480916030534353	0.7480916030534351	0.5954198473282443	0.0	0.0	0.0
2017-08-17 18:04:26.881846	lat	lng	-0.9892578125	0.01708984375	-0.0322265625	2.5343511450381677	-0.04580152671755725	0.5190839694656488	0.0	0.0	0.0
2017-08-17 18:04:26.898613	lat	lng	-0.994140625	0.014404296875	-0.027099609375	2.6717557251908395	-0.22900763358778625	0.2748091603053435	0.0	0.0	0.0
2017-08-17 18:04:26.916137	lat	lng	-0.99365234375	0.017822265625	-0.033203125	2.4580152671755724	0.42748091603053434	0.5648854961832062	0.0	0.0	0.0
2017-08-17 18:04:26.933586	lat	lng	-0.987060546875	0.017333984375	-0.028076171875	2.564885496183206	0.5343511450381679	0.5038167938931297	0.0	0.0	0.0
2017-08-17 18:04:26.950973	lat	lng	-0.991455078125	0.01513671875	-0.03125	2.6106870229007635	0.732824427480916	0.4580152671755725	0.0	0.0	0.0
