Time	Position_lat	Position_lng	Accelerometer_x	Accelerometer_y	Accelerometer_z	Gyroscope_x	Gyroscope_y	Gyroscope_z	Magnetometer_x	Magnetometer_y	Magnetometer_z
2017-08-17 13:59:32.597588	lat	lng	-0.988037109375	0.01220703125	-0.020751953125	2.6564885496183206	-0.2595419847328244	1.0076335877862594	167.4	117.0	-69.0
2017-08-17 13:59:32.625461	lat	lng	-0.988525390625	0.014892578125	-0.0166015625	2.4885496183206106	-0.16793893129770993	0.8244274809160306	167.4	117.0	-69.0
2017-08-17 13:59:32.645306	lat	lng	-0.992431640625	0.016357421875	-0.010986328125	2.366412213740458	-0.13740458015267176	0.7786259541984732	167.4	117.0	-69.0
2017-08-17 13:59:32.661702	lat	lng	-0.99267578125	0.012939453125	-0.015625	2.4427480916030535	-0.04580152671755725	1.0534351145038168	167.4	117.0	-69.0
2017-08-17 13:59:32.679264	lat	lng	-0.991455078125	0.015869140625	-0.020751953125	2.351145038167939	-0.21374045801526717	0.7786259541984732	167.4	117.0	-69.0
2017-08-17 13:59:32.701632	lat	lng	-0.9912109375	0.017333984375	-0.01953125	2.4885496183206106	-0.24427480916030533	0.9465648854961832	167.4	117.0	-69.0
2017-08-17 13:59:32.719384	lat	lng	-0.984375	0.017333984375	-0.013916015625	2.6106870229007635	-0.04580152671755725	0.9923664122137404	167.4	117.0	-69.0
2017-08-17 13:59:32.745037	lat	lng	-0.99365234375	0.015625	-0.0224609375	2.4122137404580153	-0.030534351145038167	0.6870229007633588	167.4	117.0	-69.0
2017-08-17 13:59:32.762803	lat	lng	-0.98876953125	0.013671875	-0.01806640625	2.4885496183206106	-0.22900763358778625	0.732824427480916	167.4	117.0	-69.0
2017-08-17 13:59:32.781027	lat	lng	-0.990478515625	0.015625	-0.010986328125	2.50381679389313	0.1984732824427481	0.8244274809160306	167.4	117.0	-69.0
2017-08-17 13:59:32.798336	lat	lng	-0.991455078125	0.015625	-0.021484375	2.4122137404580153	-0.015267175572519083	0.7938931297709924	167.4	117.0	-69.0
2017-08-17 13:59:32.816183	lat	lng	-0.99072265625	0.012451171875	-0.02392578125	2.564885496183206	-0.21374045801526717	1.0076335877862594	167.4	117.0	-69.0
2017-08-17 13:59:32.837627	lat	lng	-0.986083984375	0.013427734375	-0.01904296875	2.3053435114503817	-0.0916030534351145	0.8854961832061069	167.4	117.0	-69.0
2017-08-17 13:59:32.854560	lat	lng	-0.992431640625	0.015869140625	-0.014892578125	2.4885496183206106	-0.24427480916030533	1.099236641221374	167.4	117.0	-69.0
2017-08-17 13:59:32.871232	lat	lng	-0.989013671875	0.012451171875	-0.0126953125	2.4885496183206106	-0.030534351145038167	0.732824427480916	167.4	117.0	-69.0
2017-08-17 13:59:32.888067	lat	lng	-0.993408203125	0.011962890625	-0.0185546875	2.549618320610687	0.0	0.7175572519083969	167.4	117.0	-69.0
2017-08-17 13:59:32.904823	lat	lng	-0.9912109375	0.01708984375	-0.017822265625	2.6717557251908395	-0.13740458015267176	0.7633587786259542	167.4	117.0	-69.0
2017-08-17 13:59:32.921694	lat	lng	-0.9892578125	0.011474609375	-0.01953125	2.4122137404580153	-0.2900763358778626	0.6259541984732825	167.4	117.0	-69.0
2017-08-17 13:59:32.938059	lat	lng	-0.9921875	0.01171875	-0.01806640625	2.687022900763359	-0.13740458015267176	0.8396946564885496	167.4	117.0	-69.0
2017-08-17 13:59:32.958296	lat	lng	-0.989501953125	0.0146484375	-0.011474609375	2.4427480916030535	0.2900763358778626	0.8702290076335878	167.4	117.0	-69.0
2017-08-17 13:59:32.977646	lat	lng	-0.9931640625	0.016845703125	-0.01220703125	2.6259541984732824	-0.183206106870229	0.9465648854961832	167.4	117.0	-69.0
2017-08-17 13:59:32.996051	lat	lng	-0.991455078125	0.01318359375	-0.016357421875	2.427480916030534	-0.15267175572519084	0.8091603053435115	167.4	117.0	-69.0
2017-08-17 13:59:33.015125	lat	lng	-0.993896484375	0.010498046875	-0.015869140625	2.3969465648854964	3.877862595419847	0.9007633587786259	167.4	117.0	-69.0
2017-08-17 13:59:33.032803	lat	lng	-0.9921875	0.013916015625	-0.015869140625	2.5801526717557253	0.0916030534351145	0.9923664122137404	167.4	117.0	-69.0
2017-08-17 13:59:33.063229	lat	lng	-0.991943359375	0.014892578125	-0.0146484375	2.381679389312977	0.10687022900763359	0.7786259541984732	167.4	117.0	-69.0
2017-08-17 13:59:33.085253	lat	lng	-0.990966796875	0.013427734375	-0.0166015625	2.16793893129771	0.0	0.7786259541984732	167.4	117.0	-69.0
2017-08-17 13:59:33.102917	lat	lng	-0.9912109375	0.015625	-0.019775390625	2.366412213740458	0.030534351145038167	0.7938931297709924	167.4	117.0	-69.0
2017-08-17 13:59:33.127009	lat	lng	-0.990234375	0.0185546875	-0.020263671875	2.427480916030534	-0.13740458015267176	0.9770992366412213	167.4	117.0	-69.0
2017-08-17 13:59:33.148463	lat	lng	-0.989501953125	0.01611328125	-0.009521484375	2.3969465648854964	-0.0916030534351145	0.916030534351145	167.4	117.0	-69.0
2017-08-17 13:59:33.172397	lat	lng	-0.98974609375	0.015869140625	-0.01416015625	2.3969465648854964	0.07633587786259542	1.0076335877862594	167.4	117.0	-69.0
2017-08-17 13:59:33.207481	lat	lng	-0.9873046875	0.017578125	-0.020263671875	2.8396946564885495	0.12213740458015267	0.7786259541984732	167.4	117.0	-69.0
2017-08-17 13:59:33.232279	lat	lng	-0.988525390625	0.012939453125	-0.014892578125	2.6259541984732824	-0.183206106870229	0.8854961832061069	167.4	117.0	-69.0
2017-08-17 13:59:33.256670	lat	lng	-0.989501953125	0.0166015625	-0.02099609375	2.5343511450381677	-0.030534351145038167	1.083969465648855	167.4	117.0	-69.0
2017-08-17 13:59:33.281303	lat	lng	-0.990478515625	0.015625	-0.013916015625	2.7022900763358777	3.8473282442748094	0.8091603053435115	167.4	117.0	-69.0
2017-08-17 13:59:33.305337	lat	lng	-0.993408203125	0.012939453125	-0.014404296875	2.33587786259542	-0.030534351145038167	0.9007633587786259	167.4	117.0	-69.0
2017-08-17 13:59:33.330127	lat	lng	-0.99072265625	0.017333984375	-0.017333984375	2.7022900763358777	0.10687022900763359	0.7938931297709924	167.4	117.0	-69.0
2017-08-17 13:59:33.354817	lat	lng	-0.989990234375	0.015625	-0.021728515625	2.5801526717557253	-0.030534351145038167	0.9465648854961832	167.4	117.0	-69.0
2017-08-17 13:59:33.379629	lat	lng	-0.990234375	0.012939453125	-0.01220703125	2.5801526717557253	-0.13740458015267176	0.8702290076335878	167.4	117.0	-69.0
2017-08-17 13:59:33.403152	lat	lng	-0.995361328125	0.013427734375	-0.013916015625	2.50381679389313	-0.21374045801526717	0.8244274809160306	167.4	117.0	-69.0
2017-08-17 13:59:33.423541	lat	lng	-0.989990234375	0.013427734375	-0.0166015625	2.4732824427480917	0.07633587786259542	1.0229007633587786	167.4	117.0	-69.0
2017-08-17 13:59:33.444086	lat	lng	-0.990478515625	0.017578125	-0.013916015625	2.5343511450381677	-0.07633587786259542	0.9007633587786259	167.4	117.0	-69.0
2017-08-17 13:59:33.464361	lat	lng	-0.993896484375	0.014404296875	-0.0205078125	2.3053435114503817	-0.16793893129770993	0.8854961832061069	167.4	117.0	-69.0
2017-08-17 13:59:33.484812	lat	lng	-0.98876953125	0.01025390625	-0.01611328125	2.4580152671755724	-0.22900763358778625	0.8854961832061069	167.4	117.0	-69.0
2017-08-17 13:59:33.505178	lat	lng	-0.988037109375	0.013671875	-0.0224609375	2.564885496183206	-0.16793893129770993	0.8396946564885496	167.4	117.0	-69.0
2017-08-17 13:59:33.525420	lat	lng	-0.990234375	0.012939453125	-0.018310546875	2.4580152671755724	0.13740458015267176	0.8702290076335878	167.4	117.0	-69.0
2017-08-17 13:59:33.545761	lat	lng	-0.98828125	0.014892578125	-0.026123046875	2.6564885496183206	-0.2748091603053435	1.0534351145038168	167.4	117.0	-69.0
2017-08-17 13:59:33.566709	lat	lng	-0.989501953125	0.01220703125	-0.017578125	2.2900763358778624	-0.2748091603053435	0.6564885496183206	167.4	117.0	-69.0
2017-08-17 13:59:33.586961	lat	lng	-0.994384765625	0.0126953125	-0.015380859375	2.427480916030534	0.04580152671755725	0.9770992366412213	167.4	117.0	-69.0
2017-08-17 13:59:33.607740	lat	lng	-0.994873046875	0.011474609375	-0.009521484375	2.4885496183206106	-0.2748091603053435	0.7938931297709924	167.4	117.0	-69.0
2017-08-17 13:59:33.628314	lat	lng	-0.9853515625	0.012939453125	-0.01708984375	2.687022900763359	-0.183206106870229	0.7938931297709924	167.4	117.0	-69.0
2017-08-17 13:59:33.649047	lat	lng	-0.99267578125	0.013916015625	-0.02734375	2.2290076335877864	0.04580152671755725	0.9618320610687023	167.4	117.0	-69.0
2017-08-17 13:59:33.669382	lat	lng	-0.99169921875	0.014404296875	-0.018798828125	2.7786259541984735	-0.24427480916030533	0.9770992366412213	167.4	117.0	-69.0
2017-08-17 13:59:33.689870	lat	lng	-0.990478515625	0.0185546875	-0.017822265625	2.381679389312977	-0.0916030534351145	0.8549618320610687	167.4	117.0	-69.0
2017-08-17 13:59:33.710636	lat	lng	-0.9921875	0.0146484375	-0.023681640625	2.5343511450381677	-0.12213740458015267	0.7633587786259542	167.4	117.0	-69.0
2017-08-17 13:59:33.731415	lat	lng	-0.991455078125	0.0126953125	-0.021728515625	2.5343511450381677	0.12213740458015267	0.7938931297709924	167.4	117.0	-69.0
2017-08-17 13:59:33.751593	lat	lng	-0.99072265625	0.015380859375	-0.013427734375	2.564885496183206	-0.015267175572519083	0.8244274809160306	167.4	117.0	-69.0
2017-08-17 13:59:33.772162	lat	lng	-0.99169921875	0.012939453125	-0.022705078125	2.687022900763359	-0.04580152671755725	0.7022900763358778	167.4	117.0	-69.0
2017-08-17 13:59:33.792508	lat	lng	-0.9921875	0.013671875	-0.02197265625	2.4427480916030535	-0.21374045801526717	0.5801526717557252	167.4	117.0	-69.0
2017-08-17 13:59:33.813161	lat	lng	-0.98876953125	0.014404296875	-0.02392578125	2.4885496183206106	-0.183206106870229	0.8244274809160306	167.4	117.0	-69.0
2017-08-17 13:59:33.833809	lat	lng	-0.991455078125	0.0146484375	-0.0126953125	2.595419847328244	-0.2748091603053435	0.9770992366412213	167.4	117.0	-69.0
2017-08-17 13:59:33.854486	lat	lng	-0.9931640625	0.01171875	-0.01513671875	2.6106870229007635	-0.32061068702290074	0.916030534351145	167.4	117.0	-69.0
2017-08-17 13:59:33.875097	lat	lng	-0.98876953125	0.013427734375	-0.019775390625	2.3969465648854964	-0.183206106870229	1.0381679389312977	167.4	117.0	-69.0
2017-08-17 13:59:33.896281	lat	lng	-0.99267578125	0.01513671875	-0.01416015625	2.6717557251908395	-0.10687022900763359	0.6870229007633588	167.4	117.0	-69.0
2017-08-17 13:59:33.917736	lat	lng	-0.99267578125	0.01220703125	-0.021484375	2.4885496183206106	-0.12213740458015267	1.0381679389312977	167.4	117.0	-69.0
2017-08-17 13:59:33.938482	lat	lng	-0.99169921875	0.01513671875	-0.0185546875	2.2900763358778624	0.07633587786259542	0.9312977099236641	167.4	117.0	-69.0
2017-08-17 13:59:33.959602	lat	lng	-0.990966796875	0.01318359375	-0.0146484375	2.732824427480916	3.877862595419847	0.916030534351145	167.4	117.0	-69.0
2017-08-17 13:59:33.980469	lat	lng	-0.98779296875	0.017333984375	-0.017822265625	2.183206106870229	-0.07633587786259542	0.7022900763358778	167.4	117.0	-69.0
2017-08-17 13:59:34.002568	lat	lng	-0.993408203125	0.009765625	-0.010498046875	2.4885496183206106	-0.15267175572519084	1.0687022900763359	167.4	117.0	-69.0
2017-08-17 13:59:34.023333	lat	lng	-0.98974609375	0.01318359375	-0.02001953125	2.6106870229007635	3.877862595419847	0.8702290076335878	167.4	117.0	-69.0
2017-08-17 13:59:34.044355	lat	lng	-0.99169921875	0.01611328125	-0.015869140625	2.595419847328244	-0.1984732824427481	0.7938931297709924	167.4	117.0	-69.0
2017-08-17 13:59:34.065081	lat	lng	-0.9921875	0.01513671875	-0.015869140625	2.4885496183206106	-0.04580152671755725	0.9618320610687023	167.4	117.0	-69.0
2017-08-17 13:59:34.085970	lat	lng	-0.990478515625	0.01416015625	-0.017333984375	2.6259541984732824	0.16793893129770993	0.8091603053435115	167.4	117.0	-69.0
2017-08-17 13:59:34.106986	lat	lng	-0.989990234375	0.008544921875	-0.015380859375	2.33587786259542	-0.13740458015267176	0.7022900763358778	167.4	117.0	-69.0
2017-08-17 13:59:34.133323	lat	lng	-0.99169921875	0.01318359375	-0.015869140625	2.4732824427480917	-0.16793893129770993	0.8854961832061069	167.4	117.0	-69.0
2017-08-17 13:59:34.158955	lat	lng	-0.989501953125	0.013916015625	-0.010986328125	2.5801526717557253	-0.24427480916030533	1.0076335877862594	167.4	117.0	-69.0
2017-08-17 13:59:34.181758	lat	lng	-0.99267578125	0.01416015625	-0.013427734375	2.366412213740458	-3.9083969465648853	0.7938931297709924	167.4	117.0	-69.0
2017-08-17 13:59:34.205949	lat	lng	-0.98974609375	0.013427734375	-0.020263671875	2.381679389312977	-0.13740458015267176	0.9007633587786259	167.4	117.0	-69.0
2017-08-17 13:59:34.229521	lat	lng	-0.9892578125	0.016845703125	-0.014404296875	2.4732824427480917	-0.15267175572519084	0.7633587786259542	167.4	117.0	-69.0
2017-08-17 13:59:34.247945	lat	lng	-0.990966796875	0.016357421875	-0.012451171875	2.564885496183206	0.015267175572519083	0.7633587786259542	167.4	117.0	-69.0
2017-08-17 13:59:34.265878	lat	lng	-0.98876953125	0.0146484375	-0.018310546875	2.4580152671755724	0.061068702290076333	0.732824427480916	167.4	117.0	-69.0
2017-08-17 13:59:34.282696	lat	lng	-0.99072265625	0.0146484375	-0.017333984375	2.519083969465649	-0.24427480916030533	0.6717557251908397	167.4	117.0	-69.0
2017-08-17 13:59:34.301438	lat	lng	-0.993408203125	0.012939453125	-0.017333984375	2.519083969465649	-0.3053435114503817	0.8396946564885496	167.4	117.0	-69.0
2017-08-17 13:59:34.319723	lat	lng	-0.992431640625	0.013427734375	-0.013427734375	2.717557251908397	-0.21374045801526717	0.7938931297709924	167.4	117.0	-69.0
2017-08-17 13:59:34.339184	lat	lng	-0.9912109375	0.014404296875	-0.018798828125	2.6259541984732824	-0.22900763358778625	0.8244274809160306	167.4	117.0	-69.0
2017-08-17 13:59:34.356105	lat	lng	-0.99267578125	0.0126953125	-0.014892578125	2.381679389312977	-0.32061068702290074	0.916030534351145	167.4	117.0	-69.0
2017-08-17 13:59:34.373401	lat	lng	-0.990234375	0.01953125	-0.016357421875	2.7480916030534353	-0.15267175572519084	1.0381679389312977	167.4	117.0	-69.0
2017-08-17 13:59:34.390550	lat	lng	-0.992919921875	0.01171875	-0.013916015625	2.564885496183206	-0.15267175572519084	1.0076335877862594	167.4	117.0	-69.0
2017-08-17 13:59:34.407946	lat	lng	-0.992919921875	0.014404296875	-0.015380859375	2.3969465648854964	0.030534351145038167	0.8244274809160306	167.4	117.0	-69.0
2017-08-17 13:59:34.424740	lat	lng	-0.991455078125	0.01220703125	-0.013427734375	2.4580152671755724	0.0	0.8854961832061069	167.4	117.0	-69.0
2017-08-17 13:59:34.442228	lat	lng	-0.99365234375	0.01171875	-0.012451171875	2.549618320610687	0.0	0.916030534351145	167.4	117.0	-69.0
2017-08-17 13:59:34.460485	lat	lng	-0.996826171875	0.012451171875	-0.01318359375	2.351145038167939	-0.07633587786259542	0.7938931297709924	167.4	117.0	-69.0
2017-08-17 13:59:34.477613	lat	lng	-0.991455078125	0.0146484375	-0.011962890625	2.4732824427480917	0.015267175572519083	0.7480916030534351	167.4	117.0	-69.0
2017-08-17 13:59:34.494239	lat	lng	-0.990478515625	0.014892578125	-0.015869140625	2.4427480916030535	-0.32061068702290074	0.8396946564885496	167.4	117.0	-69.0
2017-08-17 13:59:34.512029	lat	lng	-0.99072265625	0.01611328125	-0.01708984375	2.183206106870229	0.015267175572519083	0.8091603053435115	167.4	117.0	-69.0
2017-08-17 13:59:34.529018	lat	lng	-0.98876953125	0.01318359375	-0.012451171875	2.5343511450381677	-0.16793893129770993	1.099236641221374	167.4	117.0	-69.0
2017-08-17 13:59:34.546856	lat	lng	-0.9921875	0.013671875	-0.021728515625	2.6259541984732824	-0.12213740458015267	0.732824427480916	167.4	117.0	-69.0
2017-08-17 13:59:34.564033	lat	lng	-0.98974609375	0.013916015625	-0.02197265625	2.351145038167939	-0.07633587786259542	0.8702290076335878	167.4	117.0	-69.0
2017-08-17 13:59:34.581487	lat	lng	-0.989990234375	0.017333984375	-0.01611328125	2.381679389312977	-0.07633587786259542	0.6412213740458015	167.4	117.0	-69.0
2017-08-17 13:59:34.597949	lat	lng	-0.991455078125	0.015869140625	-0.012451171875	2.4427480916030535	-0.0916030534351145	0.7938931297709924	167.4	117.0	-69.0
2017-08-17 13:59:34.615193	lat	lng	-0.988037109375	0.012939453125	-0.01513671875	2.3969465648854964	0.10687022900763359	0.5954198473282443	167.4	117.0	-69.0
2017-08-17 13:59:34.631959	lat	lng	-0.990966796875	0.01416015625	-0.0205078125	2.3206106870229006	0.061068702290076333	0.9770992366412213	167.4	117.0	-69.0
2017-08-17 13:59:34.649252	lat	lng	-0.989013671875	0.017822265625	-0.013671875	2.687022900763359	-0.1984732824427481	1.099236641221374	167.4	117.0	-69.0
2017-08-17 13:59:34.665961	lat	lng	-0.990478515625	0.0126953125	-0.01318359375	2.564885496183206	-0.12213740458015267	0.8854961832061069	167.4	117.0	-69.0
2017-08-17 13:59:34.683185	lat	lng	-0.989013671875	0.015625	-0.019287109375	2.50381679389313	-0.12213740458015267	0.8244274809160306	167.4	117.0	-69.0
2017-08-17 13:59:34.699714	lat	lng	-0.99169921875	0.014404296875	-0.015380859375	2.5343511450381677	-0.12213740458015267	0.8244274809160306	167.4	117.0	-69.0
2017-08-17 13:59:34.722675	lat	lng	-0.990478515625	0.015869140625	-0.0107421875	2.4732824427480917	-0.12213740458015267	0.916030534351145	167.4	117.0	-69.0
2017-08-17 13:59:34.741175	lat	lng	-0.988037109375	0.01123046875	-0.02294921875	2.5343511450381677	-0.2900763358778626	0.8702290076335878	167.4	117.0	-69.0
2017-08-17 13:59:34.761378	lat	lng	-0.99462890625	0.017822265625	-0.009521484375	2.763358778625954	-0.12213740458015267	0.9465648854961832	167.4	117.0	-69.0
2017-08-17 13:59:34.779811	lat	lng	-0.991943359375	0.01513671875	-0.017578125	2.3206106870229006	-0.07633587786259542	0.5954198473282443	167.4	117.0	-69.0
2017-08-17 13:59:34.799408	lat	lng	-0.991943359375	0.01611328125	-0.021240234375	2.717557251908397	-0.07633587786259542	0.7633587786259542	167.4	117.0	-69.0
2017-08-17 13:59:34.817170	lat	lng	-0.990234375	0.015869140625	-0.020751953125	2.549618320610687	-0.030534351145038167	0.6412213740458015	167.4	117.0	-69.0
2017-08-17 13:59:34.835986	lat	lng	-0.989013671875	0.015380859375	-0.016845703125	2.549618320610687	-0.10687022900763359	0.8702290076335878	167.4	117.0	-69.0
2017-08-17 13:59:34.852545	lat	lng	-0.99169921875	0.01416015625	-0.01171875	2.427480916030534	-0.04580152671755725	0.8702290076335878	167.4	117.0	-69.0
2017-08-17 13:59:34.870012	lat	lng	-0.99267578125	0.014892578125	-0.01318359375	2.366412213740458	-0.33587786259541985	0.8091603053435115	167.4	117.0	-69.0
2017-08-17 13:59:34.890540	lat	lng	-0.991943359375	0.013427734375	-0.02099609375	2.427480916030534	-0.22900763358778625	1.083969465648855	167.4	117.0	-69.0
2017-08-17 13:59:34.909717	lat	lng	-0.9912109375	0.013671875	-0.013671875	2.4732824427480917	-0.0916030534351145	0.5954198473282443	167.4	117.0	-69.0
2017-08-17 13:59:34.929201	lat	lng	-0.989013671875	0.014892578125	-0.00732421875	2.564885496183206	-0.2900763358778626	0.7175572519083969	167.4	117.0	-69.0
2017-08-17 13:59:34.949465	lat	lng	-0.98779296875	0.010498046875	-0.019287109375	2.4885496183206106	-0.22900763358778625	1.099236641221374	167.4	117.0	-69.0
2017-08-17 13:59:34.977049	lat	lng	-0.993896484375	0.012451171875	-0.013427734375	2.427480916030534	-0.183206106870229	0.9312977099236641	167.4	117.0	-69.0
2017-08-17 13:59:35.000591	lat	lng	-0.989501953125	0.014404296875	-0.02001953125	2.2900763358778624	-0.04580152671755725	0.9007633587786259	167.4	117.0	-69.0
2017-08-17 13:59:35.022014	lat	lng	-0.98974609375	0.015380859375	-0.011474609375	2.5343511450381677	-0.061068702290076333	0.9312977099236641	167.4	117.0	-69.0
2017-08-17 13:59:35.054637	lat	lng	-0.9921875	0.011474609375	-0.01513671875	2.519083969465649	-0.0916030534351145	0.8702290076335878	167.4	117.0	-69.0
2017-08-17 13:59:35.083494	lat	lng	-0.990478515625	0.01123046875	-0.015869140625	2.519083969465649	-3.9083969465648853	0.7786259541984732	167.4	117.0	-69.0
2017-08-17 13:59:35.116097	lat	lng	-0.990478515625	0.012939453125	-0.0205078125	2.564885496183206	-0.3053435114503817	0.5954198473282443	167.4	117.0	-69.0
2017-08-17 13:59:35.142315	lat	lng	-0.99072265625	0.013916015625	-0.0283203125	2.2442748091603053	-0.33587786259541985	0.8244274809160306	167.4	117.0	-69.0
2017-08-17 13:59:35.173876	lat	lng	-0.990234375	0.0185546875	-0.02001953125	2.4122137404580153	-0.2595419847328244	0.8549618320610687	167.4	117.0	-69.0
2017-08-17 13:59:35.196410	lat	lng	-0.9912109375	0.011474609375	-0.01904296875	2.4427480916030535	-0.22900763358778625	0.7480916030534351	167.4	117.0	-69.0
2017-08-17 13:59:35.219543	lat	lng	-0.992919921875	0.012939453125	-0.026611328125	2.366412213740458	-0.2748091603053435	0.8854961832061069	167.4	117.0	-69.0
2017-08-17 13:59:35.249854	lat	lng	-0.991943359375	0.0146484375	-0.030029296875	2.4732824427480917	-0.3053435114503817	0.7633587786259542	167.4	117.0	-69.0
2017-08-17 13:59:35.270686	lat	lng	-0.99169921875	0.014892578125	-0.019775390625	2.4580152671755724	0.22900763358778625	0.8244274809160306	167.4	117.0	-69.0
2017-08-17 13:59:35.291612	lat	lng	-0.98974609375	0.014892578125	-0.011962890625	2.366412213740458	-0.12213740458015267	0.7786259541984732	167.4	117.0	-69.0
2017-08-17 13:59:35.312359	lat	lng	-0.9892578125	0.011474609375	-0.0185546875	2.2595419847328246	-0.15267175572519084	0.6259541984732825	167.4	117.0	-69.0
2017-08-17 13:59:35.344154	lat	lng	-0.991455078125	0.0146484375	-0.0166015625	2.427480916030534	-0.21374045801526717	1.083969465648855	167.4	117.0	-69.0
2017-08-17 13:59:35.366154	lat	lng	-0.989501953125	0.01416015625	-0.0185546875	2.3206106870229006	-0.07633587786259542	0.8091603053435115	167.4	117.0	-69.0
2017-08-17 13:59:35.390694	lat	lng	-0.9892578125	0.015869140625	-0.020751953125	2.6259541984732824	-0.22900763358778625	0.9465648854961832	167.4	117.0	-69.0
2017-08-17 13:59:35.412019	lat	lng	-0.988037109375	0.0146484375	-0.01123046875	2.5801526717557253	-0.10687022900763359	0.7786259541984732	167.4	117.0	-69.0
2017-08-17 13:59:35.432922	lat	lng	-0.99072265625	0.012451171875	-0.017822265625	2.6259541984732824	-0.10687022900763359	0.8091603053435115	167.4	117.0	-69.0
2017-08-17 13:59:35.456765	lat	lng	-0.98876953125	0.01416015625	-0.01171875	2.4580152671755724	0.21374045801526717	0.9618320610687023	167.4	117.0	-69.0
2017-08-17 13:59:35.483096	lat	lng	-0.9921875	0.01123046875	-0.015380859375	2.427480916030534	-0.12213740458015267	0.9923664122137404	167.4	117.0	-69.0
2017-08-17 13:59:35.506052	lat	lng	-0.98779296875	0.01318359375	-0.01708984375	2.33587786259542	-0.0916030534351145	0.8396946564885496	167.4	117.0	-69.0
2017-08-17 13:59:35.528904	lat	lng	-0.990478515625	0.01220703125	-0.017333984375	2.351145038167939	0.0	0.8702290076335878	167.4	117.0	-69.0
2017-08-17 13:59:35.556439	lat	lng	-0.989990234375	0.0166015625	-0.0087890625	2.4122137404580153	-0.07633587786259542	0.8091603053435115	167.4	117.0	-69.0
2017-08-17 13:59:35.575650	lat	lng	-0.992431640625	0.013671875	-0.013427734375	2.5343511450381677	0.07633587786259542	0.9770992366412213	167.4	117.0	-69.0
2017-08-17 13:59:35.592593	lat	lng	-0.991455078125	0.01025390625	-0.026123046875	2.6564885496183206	-0.030534351145038167	1.1145038167938932	167.4	117.0	-69.0
2017-08-17 13:59:35.614962	lat	lng	-0.990234375	0.01025390625	-0.02197265625	2.4427480916030535	-0.0916030534351145	0.9923664122137404	167.4	117.0	-69.0
2017-08-17 13:59:35.632610	lat	lng	-0.99267578125	0.009765625	-0.01318359375	2.5801526717557253	0.061068702290076333	0.9923664122137404	167.4	117.0	-69.0
2017-08-17 13:59:35.655808	lat	lng	-0.9951171875	0.013427734375	-0.024658203125	2.2900763358778624	0.12213740458015267	0.8854961832061069	167.4	117.0	-69.0
2017-08-17 13:59:35.672159	lat	lng	-0.9892578125	0.013427734375	-0.022216796875	2.519083969465649	-0.2900763358778626	0.7633587786259542	167.4	117.0	-69.0
2017-08-17 13:59:35.692540	lat	lng	-0.9921875	0.013427734375	-0.013671875	2.549618320610687	-0.3053435114503817	0.8549618320610687	167.4	117.0	-69.0
2017-08-17 13:59:35.711222	lat	lng	-0.98828125	0.014892578125	-0.015380859375	2.427480916030534	-0.22900763358778625	0.9465648854961832	167.4	117.0	-69.0
2017-08-17 13:59:35.731259	lat	lng	-0.98681640625	0.0166015625	-0.0107421875	2.6564885496183206	-0.16793893129770993	0.9923664122137404	167.4	117.0	-69.0
2017-08-17 13:59:35.748426	lat	lng	-0.98828125	0.01708984375	-0.014404296875	2.2442748091603053	-0.366412213740458	1.1297709923664123	167.4	117.0	-69.0
2017-08-17 13:59:35.766187	lat	lng	-0.990234375	0.01513671875	-0.013427734375	2.366412213740458	-0.12213740458015267	0.8702290076335878	167.4	117.0	-69.0
2017-08-17 13:59:35.782628	lat	lng	-0.989013671875	0.013427734375	-0.01416015625	2.381679389312977	-0.4122137404580153	0.8549618320610687	167.4	117.0	-69.0
2017-08-17 13:59:35.800362	lat	lng	-0.988525390625	0.009521484375	-0.015625	2.4122137404580153	0.04580152671755725	0.9312977099236641	167.4	117.0	-69.0
2017-08-17 13:59:35.816998	lat	lng	-0.99267578125	0.0166015625	-0.015380859375	2.4885496183206106	-0.13740458015267176	0.9618320610687023	167.4	117.0	-69.0
2017-08-17 13:59:35.835885	lat	lng	-0.989013671875	0.014892578125	-0.015869140625	2.427480916030534	-0.21374045801526717	1.0229007633587786	167.4	117.0	-69.0
2017-08-17 13:59:35.853971	lat	lng	-0.9892578125	0.012939453125	-0.01416015625	2.427480916030534	-0.4122137404580153	0.9007633587786259	167.4	117.0	-69.0
2017-08-17 13:59:35.872580	lat	lng	-0.987548828125	0.0185546875	-0.015625	2.4427480916030535	-0.07633587786259542	0.8396946564885496	167.4	117.0	-69.0
2017-08-17 13:59:35.891595	lat	lng	-0.99072265625	0.01025390625	-0.006591796875	2.519083969465649	-0.2900763358778626	0.7938931297709924	167.4	117.0	-69.0
2017-08-17 13:59:35.908505	lat	lng	-0.98974609375	0.01513671875	-0.01953125	2.732824427480916	-0.24427480916030533	0.9465648854961832	167.4	117.0	-69.0
2017-08-17 13:59:35.925334	lat	lng	-0.986328125	0.011962890625	-0.012451171875	2.381679389312977	-0.366412213740458	0.9007633587786259	167.4	117.0	-69.0
2017-08-17 13:59:35.942398	lat	lng	-0.99267578125	0.01220703125	-0.0166015625	2.4580152671755724	-0.07633587786259542	0.9465648854961832	167.4	117.0	-69.0
2017-08-17 13:59:35.958792	lat	lng	-0.9892578125	0.012451171875	-0.01025390625	2.4580152671755724	-0.13740458015267176	1.0381679389312977	167.4	117.0	-69.0
2017-08-17 13:59:35.981009	lat	lng	-0.987548828125	0.0126953125	-0.0205078125	2.3206106870229006	0.13740458015267176	0.7786259541984732	167.4	117.0	-69.0
2017-08-17 13:59:35.997384	lat	lng	-0.994140625	0.01806640625	-0.010009765625	2.519083969465649	0.07633587786259542	0.8091603053435115	167.4	117.0	-69.0
2017-08-17 13:59:36.015136	lat	lng	-0.991943359375	0.01025390625	-0.0166015625	2.6717557251908395	-0.061068702290076333	0.7938931297709924	167.4	117.0	-69.0
2017-08-17 13:59:36.031941	lat	lng	-0.991943359375	0.01220703125	-0.0146484375	2.5801526717557253	-0.07633587786259542	0.916030534351145	167.4	117.0	-69.0
2017-08-17 13:59:36.049785	lat	lng	-0.994140625	0.01611328125	-0.021728515625	2.4885496183206106	-0.22900763358778625	0.8854961832061069	167.4	117.0	-69.0
2017-08-17 13:59:36.071872	lat	lng	-0.99072265625	0.014892578125	-0.0126953125	2.3053435114503817	0.0916030534351145	0.8091603053435115	167.4	117.0	-69.0
2017-08-17 13:59:36.089832	lat	lng	-0.9873046875	0.013671875	-0.01123046875	2.33587786259542	0.04580152671755725	0.732824427480916	167.4	117.0	-69.0
2017-08-17 13:59:36.109050	lat	lng	-0.989501953125	0.014404296875	-0.01904296875	2.4580152671755724	-0.1984732824427481	0.9618320610687023	167.4	117.0	-69.0
2017-08-17 13:59:36.127084	lat	lng	-0.98828125	0.018310546875	-0.01416015625	2.4580152671755724	-0.3816793893129771	0.7938931297709924	167.4	117.0	-69.0
2017-08-17 13:59:36.146393	lat	lng	-0.989990234375	0.01416015625	-0.01611328125	2.3053435114503817	0.015267175572519083	1.083969465648855	167.4	117.0	-69.0
2017-08-17 13:59:36.164765	lat	lng	-0.989013671875	0.010986328125	-0.019775390625	2.549618320610687	0.21374045801526717	0.8091603053435115	167.4	117.0	-69.0
2017-08-17 13:59:36.189075	lat	lng	-0.990234375	0.015380859375	-0.014892578125	2.549618320610687	-0.10687022900763359	0.8854961832061069	167.4	117.0	-69.0
2017-08-17 13:59:36.208283	lat	lng	-0.992431640625	0.017578125	-0.024169921875	2.2900763358778624	0.015267175572519083	0.7633587786259542	167.4	117.0	-69.0
2017-08-17 13:59:36.226898	lat	lng	-0.991455078125	0.014892578125	-0.017578125	2.564885496183206	-0.21374045801526717	0.8854961832061069	167.4	117.0	-69.0
2017-08-17 13:59:36.248202	lat	lng	-0.988525390625	0.014404296875	-0.015380859375	2.3206106870229006	-0.24427480916030533	0.9312977099236641	167.4	117.0	-69.0
2017-08-17 13:59:36.268601	lat	lng	-0.990966796875	0.013916015625	-0.021484375	2.33587786259542	-0.15267175572519084	0.9923664122137404	167.4	117.0	-69.0
2017-08-17 13:59:36.291990	lat	lng	-0.98974609375	0.013427734375	-0.0166015625	2.549618320610687	0.10687022900763359	0.8396946564885496	167.4	117.0	-69.0
2017-08-17 13:59:36.316419	lat	lng	-0.99365234375	0.013671875	-0.0185546875	2.6412213740458017	-0.07633587786259542	0.7938931297709924	167.4	117.0	-69.0
2017-08-17 13:59:36.338897	lat	lng	-0.99267578125	0.01806640625	-0.01025390625	2.50381679389313	0.04580152671755725	0.7938931297709924	167.4	117.0	-69.0
2017-08-17 13:59:36.359976	lat	lng	-0.98486328125	0.012451171875	-0.0146484375	2.3053435114503817	-0.24427480916030533	0.8549618320610687	167.4	117.0	-69.0
2017-08-17 13:59:36.394050	lat	lng	-0.99267578125	0.01708984375	-0.017822265625	2.4122137404580153	-0.04580152671755725	0.7786259541984732	167.4	117.0	-69.0
2017-08-17 13:59:36.419750	lat	lng	-0.991943359375	0.0126953125	-0.01904296875	2.549618320610687	-0.15267175572519084	0.7480916030534351	167.4	117.0	-69.0
2017-08-17 13:59:36.447164	lat	lng	-0.98974609375	0.01416015625	-0.017578125	2.6564885496183206	-0.04580152671755725	0.6717557251908397	167.4	117.0	-69.0
2017-08-17 13:59:36.473284	lat	lng	-0.9892578125	0.015625	-0.013427734375	2.3053435114503817	-0.21374045801526717	0.9618320610687023	167.4	117.0	-69.0
2017-08-17 13:59:36.500788	lat	lng	-0.994140625	0.01171875	-0.012451171875	2.6259541984732824	-0.10687022900763359	1.0229007633587786	167.4	117.0	-69.0
2017-08-17 13:59:36.530664	lat	lng	-0.99267578125	0.01513671875	-0.02392578125	2.2442748091603053	-0.061068702290076333	0.8702290076335878	167.4	117.0	-69.0
2017-08-17 13:59:36.551935	lat	lng	-0.9912109375	0.013427734375	-0.016845703125	2.6259541984732824	-0.2595419847328244	1.0076335877862594	167.4	117.0	-69.0
2017-08-17 13:59:36.575010	lat	lng	-0.989501953125	0.015380859375	-0.013427734375	2.595419847328244	-0.183206106870229	0.9007633587786259	167.4	117.0	-69.0
2017-08-17 13:59:36.596130	lat	lng	-0.98876953125	0.017822265625	-0.020751953125	2.5343511450381677	-0.1984732824427481	0.8854961832061069	167.4	117.0	-69.0
2017-08-17 13:59:36.621040	lat	lng	-0.994140625	0.01123046875	-0.014404296875	2.33587786259542	-0.061068702290076333	0.8702290076335878	167.4	117.0	-69.0
2017-08-17 13:59:36.649357	lat	lng	-0.990966796875	0.018798828125	-0.022216796875	2.2595419847328246	-0.13740458015267176	0.7786259541984732	167.4	117.0	-69.0
2017-08-17 13:59:36.667789	lat	lng	-0.990234375	0.013916015625	-0.01025390625	2.3969465648854964	0.030534351145038167	0.8244274809160306	167.4	117.0	-69.0
2017-08-17 13:59:36.684984	lat	lng	-0.98974609375	0.013671875	-0.014892578125	2.2442748091603053	0.061068702290076333	0.9312977099236641	167.4	117.0	-69.0
2017-08-17 13:59:36.701631	lat	lng	-0.98779296875	0.0107421875	-0.020751953125	2.6106870229007635	-0.22900763358778625	1.099236641221374	167.4	117.0	-69.0
2017-08-17 13:59:36.718568	lat	lng	-0.98876953125	0.016357421875	-0.011962890625	2.549618320610687	-0.3511450381679389	0.8702290076335878	167.4	117.0	-69.0
2017-08-17 13:59:36.735373	lat	lng	-0.98779296875	0.0146484375	-0.01416015625	2.4885496183206106	-0.13740458015267176	0.8396946564885496	167.4	117.0	-69.0
2017-08-17 13:59:36.753091	lat	lng	-0.99072265625	0.01904296875	-0.015869140625	2.33587786259542	-0.183206106870229	0.8854961832061069	167.4	117.0	-69.0
2017-08-17 13:59:36.769605	lat	lng	-0.99169921875	0.014404296875	-0.015869140625	2.4885496183206106	-0.22900763358778625	0.8854961832061069	167.4	117.0	-69.0
2017-08-17 13:59:36.786495	lat	lng	-0.99560546875	0.010986328125	-0.01708984375	2.564885496183206	3.877862595419847	0.8091603053435115	167.4	117.0	-69.0
2017-08-17 13:59:36.803167	lat	lng	-0.9912109375	0.015380859375	-0.013671875	2.381679389312977	-0.030534351145038167	0.9312977099236641	167.4	117.0	-69.0
2017-08-17 13:59:36.819918	lat	lng	-0.988525390625	0.012939453125	-0.019287109375	2.3053435114503817	-0.10687022900763359	0.9465648854961832	167.4	117.0	-69.0
2017-08-17 13:59:36.836537	lat	lng	-0.990478515625	0.013916015625	-0.015380859375	2.5801526717557253	0.07633587786259542	0.8091603053435115	167.4	117.0	-69.0
2017-08-17 13:59:36.853339	lat	lng	-0.992431640625	0.013671875	-0.015869140625	2.4122137404580153	0.183206106870229	0.8091603053435115	167.4	117.0	-69.0
2017-08-17 13:59:36.869825	lat	lng	-0.99072265625	0.017578125	-0.008056640625	2.4580152671755724	-0.15267175572519084	0.7786259541984732	167.4	117.0	-69.0
2017-08-17 13:59:36.886608	lat	lng	-0.989990234375	0.01318359375	-0.012939453125	2.6717557251908395	-0.12213740458015267	0.7480916030534351	167.4	117.0	-69.0
2017-08-17 13:59:36.903123	lat	lng	-0.98828125	0.013427734375	-0.010498046875	2.595419847328244	-0.366412213740458	0.9618320610687023	167.4	117.0	-69.0
2017-08-17 13:59:36.919840	lat	lng	-0.993408203125	0.010009765625	-0.01416015625	2.549618320610687	0.16793893129770993	0.7633587786259542	167.4	117.0	-69.0
2017-08-17 13:59:36.936781	lat	lng	-0.98779296875	0.015625	-0.0107421875	2.549618320610687	-0.15267175572519084	0.8702290076335878	167.4	117.0	-69.0
2017-08-17 13:59:36.953488	lat	lng	-0.994384765625	0.017822265625	-0.0078125	2.4885496183206106	-0.04580152671755725	0.8549618320610687	167.4	117.0	-69.0
2017-08-17 13:59:36.970685	lat	lng	-0.991943359375	0.012939453125	-0.01171875	2.50381679389313	-0.22900763358778625	0.7633587786259542	167.4	117.0	-69.0
2017-08-17 13:59:36.987724	lat	lng	-0.9912109375	0.013671875	-0.014892578125	2.33587786259542	-0.0916030534351145	0.7938931297709924	167.4	117.0	-69.0
2017-08-17 13:59:37.004665	lat	lng	-0.99267578125	0.014892578125	-0.021728515625	2.381679389312977	-0.15267175572519084	0.732824427480916	167.4	117.0	-69.0
2017-08-17 13:59:37.021349	lat	lng	-0.99072265625	0.017822265625	-0.016845703125	2.7480916030534353	-0.2595419847328244	0.8091603053435115	167.4	117.0	-69.0
2017-08-17 13:59:37.037869	lat	lng	-0.992431640625	0.012451171875	-0.01708984375	2.5343511450381677	-0.10687022900763359	0.916030534351145	167.4	117.0	-69.0
2017-08-17 13:59:37.054907	lat	lng	-0.9931640625	0.012939453125	-0.014404296875	2.381679389312977	0.3511450381679389	0.8396946564885496	167.4	117.0	-69.0
2017-08-17 13:59:37.073227	lat	lng	-0.9931640625	0.01318359375	-0.00634765625	2.6717557251908395	-0.3816793893129771	0.8091603053435115	167.4	117.0	-69.0
2017-08-17 13:59:37.091848	lat	lng	-0.989990234375	0.014404296875	-0.01171875	2.4427480916030535	0.030534351145038167	0.916030534351145	167.4	117.0	-69.0
2017-08-17 13:59:37.110797	lat	lng	-0.986572265625	0.018310546875	-0.0087890625	2.4122137404580153	-0.2748091603053435	0.9312977099236641	167.4	117.0	-69.0
2017-08-17 13:59:37.134552	lat	lng	-0.987060546875	0.01416015625	-0.014404296875	2.5801526717557253	-0.2595419847328244	1.0229007633587786	167.4	117.0	-69.0
2017-08-17 13:59:37.152424	lat	lng	-0.989990234375	0.013671875	-0.0126953125	2.4732824427480917	-0.2595419847328244	0.7786259541984732	167.4	117.0	-69.0
2017-08-17 13:59:37.171396	lat	lng	-0.989013671875	0.013427734375	-0.019287109375	2.4122137404580153	3.8931297709923665	0.8244274809160306	167.4	117.0	-69.0
2017-08-17 13:59:37.189144	lat	lng	-0.994384765625	0.01171875	-0.016357421875	2.2442748091603053	-0.061068702290076333	0.8244274809160306	167.4	117.0	-69.0
2017-08-17 13:59:37.208235	lat	lng	-0.995361328125	0.014892578125	-0.012939453125	2.351145038167939	-0.2748091603053435	0.9770992366412213	167.4	117.0	-69.0
2017-08-17 13:59:37.227160	lat	lng	-0.994140625	0.017578125	-0.01416015625	2.4732824427480917	-0.12213740458015267	0.9007633587786259	167.4	117.0	-69.0
2017-08-17 13:59:37.246371	lat	lng	-0.989013671875	0.012939453125	-0.016357421875	2.4427480916030535	-0.183206106870229	0.6564885496183206	167.4	117.0	-69.0
2017-08-17 13:59:37.264731	lat	lng	-0.9892578125	0.0126953125	-0.0107421875	2.33587786259542	-0.2748091603053435	1.0687022900763359	167.4	117.0	-69.0
2017-08-17 13:59:37.284975	lat	lng	-0.989013671875	0.0107421875	-0.01025390625	2.2290076335877864	-0.0916030534351145	0.8396946564885496	167.4	117.0	-69.0
2017-08-17 13:59:37.307665	lat	lng	-0.98876953125	0.018310546875	-0.018798828125	2.6106870229007635	0.15267175572519084	0.732824427480916	167.4	117.0	-69.0
2017-08-17 13:59:37.327696	lat	lng	-0.989990234375	0.01318359375	-0.014404296875	2.2442748091603053	-0.030534351145038167	0.7786259541984732	167.4	117.0	-69.0
2017-08-17 13:59:37.346867	lat	lng	-0.98779296875	0.013671875	-0.006591796875	2.381679389312977	-0.12213740458015267	0.7175572519083969	167.4	117.0	-69.0
2017-08-17 13:59:37.370758	lat	lng	-0.9892578125	0.010986328125	-0.020263671875	2.5343511450381677	-0.16793893129770993	0.9312977099236641	167.4	117.0	-69.0
2017-08-17 13:59:37.395297	lat	lng	-0.993896484375	0.013916015625	-0.0185546875	2.3969465648854964	3.877862595419847	0.8091603053435115	167.4	117.0	-69.0
2017-08-17 13:59:37.419062	lat	lng	-0.992431640625	0.012939453125	-0.02294921875	2.2595419847328246	-0.0916030534351145	0.7175572519083969	167.4	117.0	-69.0
2017-08-17 13:59:37.443499	lat	lng	-0.990478515625	0.011962890625	-0.021728515625	2.4580152671755724	-0.061068702290076333	0.8091603053435115	167.4	117.0	-69.0
2017-08-17 13:59:37.476069	lat	lng	-0.98876953125	0.013427734375	-0.013916015625	2.6412213740458017	3.877862595419847	0.8396946564885496	167.4	117.0	-69.0
2017-08-17 13:59:37.499344	lat	lng	-0.9912109375	0.013427734375	-0.018798828125	2.381679389312977	-0.1984732824427481	0.9007633587786259	167.4	117.0	-69.0
2017-08-17 13:59:37.520727	lat	lng	-0.99267578125	0.012939453125	-0.017822265625	2.3206106870229006	-0.030534351145038167	0.9007633587786259	167.4	117.0	-69.0
2017-08-17 13:59:37.546065	lat	lng	-0.9921875	0.01416015625	-0.017333984375	2.33587786259542	-0.183206106870229	1.0687022900763359	167.4	117.0	-69.0
2017-08-17 13:59:37.569879	lat	lng	-0.9833984375	0.01171875	-0.01806640625	2.6412213740458017	-0.0916030534351145	0.6259541984732825	167.4	117.0	-69.0
2017-08-17 13:59:37.592299	lat	lng	-0.995849609375	0.01708984375	-0.02001953125	2.519083969465649	-0.183206106870229	0.7786259541984732	167.4	117.0	-69.0
2017-08-17 13:59:37.613950	lat	lng	-0.994384765625	0.01318359375	-0.012451171875	2.381679389312977	-0.10687022900763359	0.6259541984732825	167.4	117.0	-69.0
2017-08-17 13:59:37.634888	lat	lng	-0.992919921875	0.0126953125	-0.015869140625	2.3969465648854964	-0.07633587786259542	0.7480916030534351	167.4	117.0	-69.0
2017-08-17 13:59:37.663193	lat	lng	-0.992919921875	0.014892578125	-0.014892578125	2.50381679389313	-0.1984732824427481	0.8854961832061069	167.4	117.0	-69.0
2017-08-17 13:59:37.684231	lat	lng	-0.9931640625	0.014404296875	-0.02099609375	2.4427480916030535	-0.183206106870229	0.9618320610687023	167.4	117.0	-69.0
2017-08-17 13:59:37.707246	lat	lng	-0.989990234375	0.01123046875	-0.02001953125	2.4580152671755724	-0.13740458015267176	0.8854961832061069	167.4	117.0	-69.0
2017-08-17 13:59:37.728982	lat	lng	-0.988037109375	0.0107421875	-0.02392578125	2.5343511450381677	0.13740458015267176	0.732824427480916	167.4	117.0	-69.0
2017-08-17 13:59:37.751631	lat	lng	-0.992919921875	0.01123046875	-0.027099609375	2.33587786259542	-0.13740458015267176	0.8244274809160306	167.4	117.0	-69.0
2017-08-17 13:59:37.773617	lat	lng	-0.9931640625	0.013916015625	-0.012939453125	2.7480916030534353	-0.015267175572519083	0.9465648854961832	167.4	117.0	-69.0
2017-08-17 13:59:37.796287	lat	lng	-0.990234375	0.011474609375	-0.017822265625	2.4580152671755724	-0.24427480916030533	0.916030534351145	167.4	117.0	-69.0
2017-08-17 13:59:37.820782	lat	lng	-0.990234375	0.01318359375	-0.019775390625	2.4885496183206106	-0.4580152671755725	1.0381679389312977	167.4	117.0	-69.0
2017-08-17 13:59:37.843358	lat	lng	-0.98779296875	0.01611328125	-0.016845703125	2.5343511450381677	-0.2748091603053435	0.7633587786259542	167.4	117.0	-69.0
2017-08-17 13:59:37.867233	lat	lng	-0.990234375	0.010986328125	-0.01708984375	2.4732824427480917	-0.10687022900763359	0.6564885496183206	167.4	117.0	-69.0
2017-08-17 13:59:37.891852	lat	lng	-0.99365234375	0.014892578125	-0.016357421875	2.519083969465649	0.1984732824427481	0.7022900763358778	167.4	117.0	-69.0
2017-08-17 13:59:37.915256	lat	lng	-0.99267578125	0.01318359375	-0.012939453125	2.3053435114503817	-0.15267175572519084	0.7938931297709924	167.4	117.0	-69.0
2017-08-17 13:59:37.939758	lat	lng	-0.992431640625	0.015625	-0.01806640625	2.6259541984732824	-0.07633587786259542	0.9618320610687023	167.4	117.0	-69.0
2017-08-17 13:59:37.962399	lat	lng	-0.989990234375	0.010986328125	-0.019775390625	2.7022900763358777	-0.32061068702290074	0.9007633587786259	167.4	117.0	-69.0
2017-08-17 13:59:38.000148	lat	lng	-0.991455078125	0.01416015625	-0.021484375	2.4580152671755724	-0.366412213740458	0.9618320610687023	167.4	117.0	-69.0
2017-08-17 13:59:38.032131	lat	lng	-0.99267578125	0.0146484375	-0.018310546875	2.4885496183206106	-0.07633587786259542	0.7022900763358778	167.4	117.0	-69.0
2017-08-17 13:59:38.053440	lat	lng	-0.989501953125	0.012451171875	-0.009765625	2.3053435114503817	-0.3053435114503817	0.9923664122137404	167.4	117.0	-69.0
2017-08-17 13:59:38.074337	lat	lng	-0.990234375	0.01318359375	-0.016357421875	2.4122137404580153	0.12213740458015267	0.7938931297709924	167.4	117.0	-69.0
2017-08-17 13:59:38.094601	lat	lng	-0.98876953125	0.01611328125	-0.01025390625	2.4427480916030535	-0.12213740458015267	0.6259541984732825	167.4	117.0	-69.0
2017-08-17 13:59:38.115694	lat	lng	-0.9931640625	0.0126953125	-0.022216796875	2.366412213740458	-0.10687022900763359	0.9618320610687023	167.4	117.0	-69.0
2017-08-17 13:59:38.134801	lat	lng	-0.9931640625	0.01171875	-0.019775390625	2.6106870229007635	-0.10687022900763359	0.7786259541984732	167.4	117.0	-69.0
2017-08-17 13:59:38.156126	lat	lng	-0.993408203125	0.01513671875	-0.018798828125	2.4427480916030535	-0.13740458015267176	0.916030534351145	167.4	117.0	-69.0
2017-08-17 13:59:38.174943	lat	lng	-0.990478515625	0.016357421875	-0.013427734375	2.4122137404580153	-0.183206106870229	0.8702290076335878	167.4	117.0	-69.0
2017-08-17 13:59:38.196234	lat	lng	-0.987060546875	0.013427734375	-0.012939453125	2.4427480916030535	0.24427480916030533	0.8702290076335878	167.4	117.0	-69.0
2017-08-17 13:59:38.215744	lat	lng	-0.99169921875	0.015625	-0.012939453125	2.4427480916030535	-0.16793893129770993	0.7938931297709924	167.4	117.0	-69.0
2017-08-17 13:59:38.235432	lat	lng	-0.990234375	0.010986328125	-0.01123046875	2.4427480916030535	0.0	0.6564885496183206	167.4	117.0	-69.0
2017-08-17 13:59:38.253364	lat	lng	-0.988037109375	0.0126953125	-0.01708984375	2.687022900763359	-0.33587786259541985	0.8702290076335878	167.4	117.0	-69.0
2017-08-17 13:59:38.270983	lat	lng	-0.989501953125	0.015869140625	-0.013916015625	2.4122137404580153	-0.061068702290076333	0.8854961832061069	167.4	117.0	-69.0
2017-08-17 13:59:38.291383	lat	lng	-0.994384765625	0.01416015625	-0.018798828125	2.4122137404580153	0.183206106870229	0.8702290076335878	167.4	117.0	-69.0
2017-08-17 13:59:38.307942	lat	lng	-0.988525390625	0.0126953125	-0.022216796875	2.50381679389313	-0.10687022900763359	0.9618320610687023	167.4	117.0	-69.0
2017-08-17 13:59:38.324954	lat	lng	-0.992919921875	0.017578125	-0.0126953125	2.33587786259542	-0.22900763358778625	0.7480916030534351	167.4	117.0	-69.0
2017-08-17 13:59:38.341669	lat	lng	-0.990234375	0.012451171875	-0.02294921875	2.4732824427480917	-0.4580152671755725	0.9465648854961832	167.4	117.0	-69.0
2017-08-17 13:59:38.360773	lat	lng	-0.99169921875	0.014892578125	-0.01220703125	2.564885496183206	-0.2595419847328244	0.8396946564885496	167.4	117.0	-69.0
2017-08-17 13:59:38.379372	lat	lng	-0.9951171875	0.015869140625	-0.016357421875	2.549618320610687	-0.07633587786259542	0.8854961832061069	167.4	117.0	-69.0
2017-08-17 13:59:38.398978	lat	lng	-0.99365234375	0.0146484375	-0.015380859375	2.3969465648854964	-0.3969465648854962	0.8549618320610687	167.4	117.0	-69.0
2017-08-17 13:59:38.417610	lat	lng	-0.99169921875	0.013671875	-0.01318359375	2.5343511450381677	-0.183206106870229	1.083969465648855	167.4	117.0	-69.0
2017-08-17 13:59:38.436797	lat	lng	-0.99169921875	0.014404296875	-0.01708984375	2.381679389312977	-0.061068702290076333	0.5801526717557252	167.4	117.0	-69.0
2017-08-17 13:59:38.454253	lat	lng	-0.9873046875	0.00927734375	-0.012451171875	2.381679389312977	0.030534351145038167	0.9618320610687023	167.4	117.0	-69.0
2017-08-17 13:59:38.473044	lat	lng	-0.991943359375	0.0126953125	-0.017822265625	2.183206106870229	-0.183206106870229	1.0534351145038168	167.4	117.0	-69.0
2017-08-17 13:59:38.490625	lat	lng	-0.989501953125	0.017578125	-0.01806640625	2.549618320610687	-0.183206106870229	0.6259541984732825	167.4	117.0	-69.0
2017-08-17 13:59:38.513897	lat	lng	-0.994140625	0.014892578125	-0.012939453125	2.519083969465649	-3.9083969465648853	0.9312977099236641	167.4	117.0	-69.0
2017-08-17 13:59:38.530799	lat	lng	-0.988525390625	0.014404296875	-0.018798828125	2.4885496183206106	-0.04580152671755725	0.7175572519083969	167.4	117.0	-69.0
2017-08-17 13:59:38.548912	lat	lng	-0.994384765625	0.015869140625	-0.014892578125	2.4732824427480917	-0.030534351145038167	0.9923664122137404	167.4	117.0	-69.0
2017-08-17 13:59:38.566556	lat	lng	-0.991455078125	0.015380859375	-0.01708984375	2.366412213740458	-0.061068702290076333	1.0229007633587786	167.4	117.0	-69.0
2017-08-17 13:59:38.584823	lat	lng	-0.98974609375	0.013427734375	-0.012451171875	2.4732824427480917	-0.3053435114503817	0.5801526717557252	167.4	117.0	-69.0
2017-08-17 13:59:38.602544	lat	lng	-0.990966796875	0.0107421875	-0.009033203125	2.381679389312977	-0.12213740458015267	0.7633587786259542	167.4	117.0	-69.0
2017-08-17 13:59:38.619616	lat	lng	-0.9921875	0.01416015625	-0.021484375	2.4122137404580153	3.8931297709923665	0.8244274809160306	167.4	117.0	-69.0
2017-08-17 13:59:38.636394	lat	lng	-0.991455078125	0.011474609375	-0.01513671875	2.427480916030534	-0.061068702290076333	0.9312977099236641	167.4	117.0	-69.0
2017-08-17 13:59:38.653163	lat	lng	-0.991455078125	0.01416015625	-0.02001953125	2.7022900763358777	3.8931297709923665	0.8854961832061069	167.4	117.0	-69.0
2017-08-17 13:59:38.674831	lat	lng	-0.990966796875	0.012451171875	-0.02001953125	2.381679389312977	-0.12213740458015267	0.916030534351145	167.4	117.0	-69.0
2017-08-17 13:59:38.692509	lat	lng	-0.98828125	0.01513671875	-0.021484375	2.3053435114503817	-3.8931297709923665	0.8396946564885496	167.4	117.0	-69.0
2017-08-17 13:59:38.709126	lat	lng	-0.9921875	0.017333984375	-0.010009765625	2.564885496183206	0.030534351145038167	0.6717557251908397	167.4	117.0	-69.0
2017-08-17 13:59:38.726081	lat	lng	-0.990478515625	0.01416015625	-0.015380859375	2.4732824427480917	-0.13740458015267176	0.9923664122137404	167.4	117.0	-69.0
2017-08-17 13:59:38.742657	lat	lng	-0.990966796875	0.015869140625	-0.01171875	2.6259541984732824	0.061068702290076333	1.0381679389312977	167.4	117.0	-69.0
2017-08-17 13:59:38.759323	lat	lng	-0.99072265625	0.012451171875	-0.01220703125	2.4122137404580153	-0.2595419847328244	0.8396946564885496	167.4	117.0	-69.0
2017-08-17 13:59:38.776150	lat	lng	-0.990966796875	0.009521484375	-0.01904296875	2.381679389312977	-0.33587786259541985	0.9007633587786259	167.4	117.0	-69.0
2017-08-17 13:59:38.797583	lat	lng	-0.9931640625	0.013671875	-0.022216796875	2.3053435114503817	-0.15267175572519084	0.6106870229007634	167.4	117.0	-69.0
2017-08-17 13:59:38.818599	lat	lng	-0.990478515625	0.015869140625	-0.01708984375	2.595419847328244	-0.2900763358778626	0.9312977099236641	167.4	117.0	-69.0
2017-08-17 13:59:38.849255	lat	lng	-0.989013671875	0.017822265625	-0.016845703125	2.381679389312977	-0.061068702290076333	0.7633587786259542	167.4	117.0	-69.0
2017-08-17 13:59:38.871450	lat	lng	-0.99169921875	0.010986328125	-0.019775390625	2.2748091603053435	0.13740458015267176	0.732824427480916	167.4	117.0	-69.0
2017-08-17 13:59:38.892960	lat	lng	-0.990234375	0.0146484375	-0.01806640625	2.4732824427480917	-0.15267175572519084	0.7480916030534351	167.4	117.0	-69.0
2017-08-17 13:59:38.915609	lat	lng	-0.99072265625	0.015380859375	-0.015869140625	2.519083969465649	-0.0916030534351145	0.7480916030534351	167.4	117.0	-69.0
2017-08-17 13:59:38.938889	lat	lng	-0.995361328125	0.010498046875	-0.01220703125	2.5801526717557253	-0.13740458015267176	0.732824427480916	167.4	117.0	-69.0
2017-08-17 13:59:38.962805	lat	lng	-0.988525390625	0.012939453125	-0.013427734375	2.381679389312977	-0.04580152671755725	0.8091603053435115	167.4	117.0	-69.0
2017-08-17 13:59:38.986973	lat	lng	-0.991455078125	0.012939453125	-0.01708984375	2.564885496183206	-0.07633587786259542	1.0381679389312977	167.4	117.0	-69.0
2017-08-17 13:59:39.005110	lat	lng	-0.9892578125	0.013916015625	-0.02001953125	2.519083969465649	-0.2900763358778626	0.7022900763358778	167.4	117.0	-69.0
2017-08-17 13:59:39.024594	lat	lng	-0.98779296875	0.015380859375	-0.015380859375	2.519083969465649	-0.07633587786259542	0.8854961832061069	167.4	117.0	-69.0
2017-08-17 13:59:39.043664	lat	lng	-0.992919921875	0.01806640625	-0.021728515625	2.427480916030534	0.04580152671755725	0.9618320610687023	167.4	117.0	-69.0
2017-08-17 13:59:39.060137	lat	lng	-0.991455078125	0.015869140625	-0.012451171875	2.6564885496183206	-0.3053435114503817	0.8549618320610687	167.4	117.0	-69.0
2017-08-17 13:59:39.076925	lat	lng	-0.992919921875	0.01513671875	-0.018310546875	2.213740458015267	0.12213740458015267	0.7786259541984732	167.4	117.0	-69.0
2017-08-17 13:59:39.093393	lat	lng	-0.990966796875	0.01220703125	-0.018798828125	2.6412213740458017	-0.2900763358778626	0.9770992366412213	167.4	117.0	-69.0
2017-08-17 13:59:39.110122	lat	lng	-0.990478515625	0.015625	-0.014404296875	2.4580152671755724	-0.04580152671755725	1.0229007633587786	167.4	117.0	-69.0
2017-08-17 13:59:39.127263	lat	lng	-0.99267578125	0.01171875	-0.015625	2.6106870229007635	-0.1984732824427481	0.9465648854961832	167.4	117.0	-69.0
2017-08-17 13:59:39.144958	lat	lng	-0.987548828125	0.013427734375	-0.015869140625	2.50381679389313	-0.10687022900763359	0.8702290076335878	167.4	117.0	-69.0
2017-08-17 13:59:39.161995	lat	lng	-0.987548828125	0.01220703125	-0.007080078125	2.0916030534351147	0.1984732824427481	0.6564885496183206	167.4	117.0	-69.0
2017-08-17 13:59:39.179299	lat	lng	-0.9892578125	0.015625	-0.018310546875	2.4427480916030535	-0.24427480916030533	0.5801526717557252	167.4	117.0	-69.0
2017-08-17 13:59:39.196959	lat	lng	-0.992431640625	0.012939453125	-0.0107421875	2.33587786259542	0.030534351145038167	0.6259541984732825	167.4	117.0	-69.0
2017-08-17 13:59:39.217261	lat	lng	-0.988037109375	0.014404296875	-0.017333984375	2.50381679389313	-0.2748091603053435	0.7786259541984732	167.4	117.0	-69.0
2017-08-17 13:59:39.234517	lat	lng	-0.988525390625	0.0107421875	-0.015625	2.33587786259542	-0.33587786259541985	0.8396946564885496	167.4	117.0	-69.0
2017-08-17 13:59:39.252226	lat	lng	-0.991455078125	0.015625	-0.0107421875	2.50381679389313	-0.030534351145038167	0.9007633587786259	167.4	117.0	-69.0
2017-08-17 13:59:39.269374	lat	lng	-0.98974609375	0.014404296875	-0.013671875	2.519083969465649	-0.16793893129770993	0.6717557251908397	167.4	117.0	-69.0
2017-08-17 13:59:39.287517	lat	lng	-0.99169921875	0.016357421875	-0.014404296875	2.2442748091603053	-3.9083969465648853	0.9007633587786259	167.4	117.0	-69.0
2017-08-17 13:59:39.304832	lat	lng	-0.992431640625	0.014404296875	-0.01513671875	2.519083969465649	-0.22900763358778625	0.7175572519083969	167.4	117.0	-69.0
2017-08-17 13:59:39.323667	lat	lng	-0.992919921875	0.012451171875	-0.011474609375	2.4732824427480917	-0.4122137404580153	0.7480916030534351	167.4	117.0	-69.0
2017-08-17 13:59:39.340807	lat	lng	-0.9892578125	0.0126953125	-0.01904296875	2.687022900763359	-0.12213740458015267	0.8091603053435115	167.4	117.0	-69.0
2017-08-17 13:59:39.358941	lat	lng	-0.989501953125	0.01611328125	-0.014404296875	2.3969465648854964	-0.061068702290076333	0.9618320610687023	167.4	117.0	-69.0
2017-08-17 13:59:39.376306	lat	lng	-0.992431640625	0.01513671875	-0.016357421875	2.351145038167939	-0.42748091603053434	0.8549618320610687	167.4	117.0	-69.0
2017-08-17 13:59:39.395564	lat	lng	-0.98828125	0.013427734375	-0.011474609375	2.8091603053435112	-0.183206106870229	0.8244274809160306	167.4	117.0	-69.0
2017-08-17 13:59:39.412896	lat	lng	-0.992431640625	0.014892578125	-0.018798828125	2.381679389312977	-0.15267175572519084	0.9465648854961832	167.4	117.0	-69.0
2017-08-17 13:59:39.431127	lat	lng	-0.98779296875	0.011474609375	-0.01025390625	2.595419847328244	-3.9083969465648853	0.6870229007633588	167.4	117.0	-69.0
2017-08-17 13:59:39.448564	lat	lng	-0.989013671875	0.015625	-0.014404296875	2.4885496183206106	-0.015267175572519083	0.8854961832061069	167.4	117.0	-69.0
2017-08-17 13:59:39.466514	lat	lng	-0.990234375	0.0166015625	-0.016845703125	2.4885496183206106	-0.32061068702290074	1.0534351145038168	167.4	117.0	-69.0
2017-08-17 13:59:39.483955	lat	lng	-0.99169921875	0.013671875	-0.012939453125	2.3969465648854964	0.12213740458015267	1.083969465648855	167.4	117.0	-69.0
2017-08-17 13:59:39.502976	lat	lng	-0.99365234375	0.012451171875	-0.021240234375	2.7022900763358777	-0.366412213740458	0.8702290076335878	167.4	117.0	-69.0
2017-08-17 13:59:39.520624	lat	lng	-0.99462890625	0.0166015625	-0.01806640625	2.50381679389313	-0.3511450381679389	0.9465648854961832	167.4	117.0	-69.0
2017-08-17 13:59:39.537959	lat	lng	-0.99072265625	0.01513671875	-0.01220703125	2.3969465648854964	-0.24427480916030533	0.732824427480916	167.4	117.0	-69.0
2017-08-17 13:59:39.554455	lat	lng	-0.992919921875	0.0146484375	-0.01953125	2.2595419847328246	-0.21374045801526717	0.9312977099236641	167.4	117.0	-69.0
2017-08-17 13:59:39.571391	lat	lng	-0.9912109375	0.012939453125	-0.01904296875	2.519083969465649	-0.10687022900763359	1.0229007633587786	167.4	117.0	-69.0
2017-08-17 13:59:39.588480	lat	lng	-0.99462890625	0.0107421875	-0.01123046875	2.3206106870229006	-0.21374045801526717	0.9770992366412213	167.4	117.0	-69.0
2017-08-17 13:59:39.606261	lat	lng	-0.992431640625	0.012939453125	-0.021240234375	2.564885496183206	0.07633587786259542	0.6412213740458015	167.4	117.0	-69.0
2017-08-17 13:59:39.622755	lat	lng	-0.991943359375	0.014404296875	-0.013427734375	2.351145038167939	-0.2595419847328244	0.5954198473282443	167.4	117.0	-69.0
2017-08-17 13:59:39.640051	lat	lng	-0.990234375	0.01171875	-0.011962890625	2.427480916030534	-0.42748091603053434	0.8854961832061069	167.4	117.0	-69.0
2017-08-17 13:59:39.656600	lat	lng	-0.9912109375	0.01513671875	-0.013427734375	2.519083969465649	-0.13740458015267176	1.0534351145038168	167.4	117.0	-69.0
2017-08-17 13:59:39.673807	lat	lng	-0.992919921875	0.01416015625	-0.014892578125	2.427480916030534	0.07633587786259542	0.732824427480916	167.4	117.0	-69.0
2017-08-17 13:59:39.690217	lat	lng	-0.993896484375	0.0146484375	-0.009521484375	2.4732824427480917	-0.061068702290076333	0.9618320610687023	167.4	117.0	-69.0
2017-08-17 13:59:39.714024	lat	lng	-0.99169921875	0.013671875	-0.017822265625	2.2900763358778624	3.8931297709923665	0.8854961832061069	167.4	117.0	-69.0
2017-08-17 13:59:39.735153	lat	lng	-0.98583984375	0.013427734375	-0.01611328125	2.5343511450381677	-0.12213740458015267	0.9618320610687023	167.4	117.0	-69.0
2017-08-17 13:59:39.759132	lat	lng	-0.99560546875	0.013916015625	-0.013671875	2.519083969465649	-3.9083969465648853	0.9465648854961832	167.4	117.0	-69.0
2017-08-17 13:59:39.781995	lat	lng	-0.99169921875	0.01611328125	-0.0224609375	2.564885496183206	-0.24427480916030533	1.0076335877862594	167.4	117.0	-69.0
2017-08-17 13:59:39.802927	lat	lng	-0.98779296875	0.012939453125	-0.01708984375	2.4885496183206106	0.15267175572519084	0.7786259541984732	167.4	117.0	-69.0
2017-08-17 13:59:39.821075	lat	lng	-0.98779296875	0.012451171875	-0.01708984375	2.2595419847328246	-0.24427480916030533	0.8549618320610687	167.4	117.0	-69.0
2017-08-17 13:59:39.839036	lat	lng	-0.992919921875	0.013916015625	-0.0263671875	2.5343511450381677	-0.13740458015267176	0.8854961832061069	167.4	117.0	-69.0
2017-08-17 13:59:39.857563	lat	lng	-0.990966796875	0.01416015625	-0.014892578125	2.595419847328244	-0.030534351145038167	0.8244274809160306	167.4	117.0	-69.0
2017-08-17 13:59:39.875596	lat	lng	-0.98681640625	0.017333984375	-0.005615234375	2.564885496183206	-0.15267175572519084	0.5343511450381679	167.4	117.0	-69.0
2017-08-17 13:59:39.895001	lat	lng	-0.988037109375	0.013427734375	-0.01318359375	2.687022900763359	-0.16793893129770993	0.8244274809160306	167.4	117.0	-69.0
2017-08-17 13:59:39.912809	lat	lng	-0.990478515625	0.01708984375	-0.01171875	2.2748091603053435	-0.24427480916030533	1.0076335877862594	167.4	117.0	-69.0
2017-08-17 13:59:39.931221	lat	lng	-0.9931640625	0.011962890625	-0.013427734375	2.5343511450381677	-0.3053435114503817	0.7480916030534351	167.4	117.0	-69.0
2017-08-17 13:59:39.949057	lat	lng	-0.988525390625	0.01123046875	-0.01220703125	2.50381679389313	0.15267175572519084	0.732824427480916	167.4	117.0	-69.0
2017-08-17 13:59:39.966868	lat	lng	-0.989990234375	0.01416015625	-0.02001953125	2.4427480916030535	-3.8931297709923665	0.9007633587786259	167.4	117.0	-69.0
2017-08-17 13:59:39.983493	lat	lng	-0.993896484375	0.01416015625	-0.0185546875	2.427480916030534	-0.061068702290076333	0.8702290076335878	167.4	117.0	-69.0
2017-08-17 13:59:40.001031	lat	lng	-0.987548828125	0.011962890625	-0.014892578125	2.564885496183206	-0.44274809160305345	0.7633587786259542	167.4	117.0	-69.0
2017-08-17 13:59:40.017630	lat	lng	-0.986083984375	0.015625	-0.015869140625	2.519083969465649	-0.13740458015267176	0.7786259541984732	167.4	117.0	-69.0
2017-08-17 13:59:40.035103	lat	lng	-0.988525390625	0.01318359375	-0.01806640625	2.366412213740458	0.030534351145038167	0.732824427480916	167.4	117.0	-69.0
2017-08-17 13:59:40.051620	lat	lng	-0.98779296875	0.01513671875	-0.016845703125	2.3969465648854964	0.183206106870229	0.9770992366412213	167.4	117.0	-69.0
2017-08-17 13:59:40.068585	lat	lng	-0.989013671875	0.01220703125	-0.015380859375	2.6564885496183206	-0.13740458015267176	0.9465648854961832	167.4	117.0	-69.0
2017-08-17 13:59:40.085237	lat	lng	-0.99072265625	0.012939453125	-0.015869140625	2.549618320610687	-0.183206106870229	0.6412213740458015	167.4	117.0	-69.0
2017-08-17 13:59:40.102138	lat	lng	-0.991455078125	0.01123046875	-0.0244140625	2.5343511450381677	0.015267175572519083	0.6412213740458015	167.4	117.0	-69.0
2017-08-17 13:59:40.119628	lat	lng	-0.993408203125	0.016845703125	-0.014404296875	2.4122137404580153	-0.12213740458015267	0.9312977099236641	167.4	117.0	-69.0
2017-08-17 13:59:40.136614	lat	lng	-0.99365234375	0.010986328125	-0.013427734375	2.5801526717557253	-0.3053435114503817	0.8091603053435115	167.4	117.0	-69.0
2017-08-17 13:59:40.153269	lat	lng	-0.9921875	0.01171875	-0.017333984375	2.564885496183206	-0.3053435114503817	1.0229007633587786	167.4	117.0	-69.0
2017-08-17 13:59:40.170000	lat	lng	-0.990966796875	0.012939453125	-0.01513671875	2.427480916030534	-0.2595419847328244	0.8549618320610687	167.4	117.0	-69.0
2017-08-17 13:59:40.186706	lat	lng	-0.993408203125	0.014404296875	-0.020751953125	2.381679389312977	-0.33587786259541985	0.7175572519083969	167.4	117.0	-69.0
2017-08-17 13:59:40.203732	lat	lng	-0.98681640625	0.010498046875	-0.020751953125	2.6106870229007635	-0.3053435114503817	0.9618320610687023	167.4	117.0	-69.0
2017-08-17 13:59:40.220309	lat	lng	-0.98828125	0.015625	-0.01708984375	2.427480916030534	0.22900763358778625	0.9312977099236641	167.4	117.0	-69.0
2017-08-17 13:59:40.237539	lat	lng	-0.988037109375	0.014404296875	-0.01318359375	2.4122137404580153	-0.3053435114503817	0.732824427480916	167.4	117.0	-69.0
2017-08-17 13:59:40.254224	lat	lng	-0.991455078125	0.014892578125	-0.013427734375	2.4732824427480917	-0.0916030534351145	0.7786259541984732	167.4	117.0	-69.0
2017-08-17 13:59:40.271445	lat	lng	-0.990234375	0.007568359375	-0.016845703125	2.519083969465649	0.0916030534351145	0.8854961832061069	167.4	117.0	-69.0
2017-08-17 13:59:40.288029	lat	lng	-0.9921875	0.014892578125	-0.012451171875	2.4580152671755724	-0.04580152671755725	0.7633587786259542	167.4	117.0	-69.0
2017-08-17 13:59:40.305140	lat	lng	-0.994140625	0.01171875	-0.013671875	2.519083969465649	-0.061068702290076333	0.7786259541984732	167.4	117.0	-69.0
2017-08-17 13:59:40.322482	lat	lng	-0.993896484375	0.013916015625	-0.02197265625	2.4885496183206106	-3.9083969465648853	0.8396946564885496	167.4	117.0	-69.0
2017-08-17 13:59:40.339463	lat	lng	-0.990478515625	0.014404296875	-0.013427734375	2.4122137404580153	-0.21374045801526717	0.7022900763358778	167.4	117.0	-69.0
2017-08-17 13:59:40.359857	lat	lng	-0.986572265625	0.014892578125	-0.009521484375	2.595419847328244	-0.15267175572519084	0.6870229007633588	167.4	117.0	-69.0
2017-08-17 13:59:40.379377	lat	lng	-0.99169921875	0.017333984375	-0.0146484375	2.2748091603053435	-0.15267175572519084	0.7786259541984732	167.4	117.0	-69.0
2017-08-17 13:59:40.398325	lat	lng	-0.989990234375	0.011962890625	-0.013671875	2.519083969465649	-0.183206106870229	1.083969465648855	167.4	117.0	-69.0
2017-08-17 13:59:40.419845	lat	lng	-0.98828125	0.01220703125	-0.024169921875	2.5801526717557253	-0.0916030534351145	0.5343511450381679	167.4	117.0	-69.0
2017-08-17 13:59:40.436875	lat	lng	-0.9873046875	0.010009765625	-0.01123046875	2.5801526717557253	-0.15267175572519084	0.732824427480916	167.4	117.0	-69.0
2017-08-17 13:59:40.455529	lat	lng	-0.9892578125	0.012451171875	-0.018310546875	2.7022900763358777	-0.015267175572519083	0.8396946564885496	167.4	117.0	-69.0
2017-08-17 13:59:40.472990	lat	lng	-0.98876953125	0.017333984375	-0.01416015625	2.4122137404580153	-0.21374045801526717	0.7633587786259542	167.4	117.0	-69.0
2017-08-17 13:59:40.490728	lat	lng	-0.988037109375	0.013916015625	-0.0166015625	2.2595419847328246	-0.10687022900763359	0.8549618320610687	167.4	117.0	-69.0
2017-08-17 13:59:40.512727	lat	lng	-0.987548828125	0.01416015625	-0.019287109375	2.595419847328244	-0.16793893129770993	0.7480916030534351	167.4	117.0	-69.0
2017-08-17 13:59:40.541008	lat	lng	-0.98974609375	0.011962890625	-0.022216796875	2.2748091603053435	-0.1984732824427481	0.9007633587786259	167.4	117.0	-69.0
2017-08-17 13:59:40.565654	lat	lng	-0.990966796875	0.01513671875	-0.015380859375	2.6717557251908395	0.030534351145038167	0.8091603053435115	167.4	117.0	-69.0
2017-08-17 13:59:40.590134	lat	lng	-0.990966796875	0.015380859375	-0.017333984375	2.4732824427480917	-0.22900763358778625	0.8702290076335878	167.4	117.0	-69.0
2017-08-17 13:59:40.610590	lat	lng	-0.99560546875	0.01318359375	-0.014892578125	2.4885496183206106	-0.16793893129770993	0.7633587786259542	167.4	117.0	-69.0
2017-08-17 13:59:40.628883	lat	lng	-0.9892578125	0.01318359375	-0.022216796875	2.50381679389313	-0.3053435114503817	0.8091603053435115	167.4	117.0	-69.0
2017-08-17 13:59:40.654310	lat	lng	-0.991455078125	0.017822265625	-0.01611328125	2.2900763358778624	-0.183206106870229	0.7938931297709924	167.4	117.0	-69.0
2017-08-17 13:59:40.680256	lat	lng	-0.99365234375	0.0126953125	-0.01806640625	2.595419847328244	0.015267175572519083	0.916030534351145	167.4	117.0	-69.0
2017-08-17 13:59:40.699253	lat	lng	-0.9931640625	0.01123046875	-0.027587890625	2.4885496183206106	0.07633587786259542	0.9923664122137404	167.4	117.0	-69.0
2017-08-17 13:59:40.719664	lat	lng	-0.988525390625	0.0166015625	-0.015625	2.4122137404580153	-0.07633587786259542	0.8702290076335878	167.4	117.0	-69.0
2017-08-17 13:59:40.740108	lat	lng	-0.989013671875	0.017333984375	-0.013916015625	2.717557251908397	0.07633587786259542	0.8549618320610687	167.4	117.0	-69.0
2017-08-17 13:59:40.756834	lat	lng	-0.993408203125	0.014404296875	-0.017333984375	2.4122137404580153	-0.3053435114503817	0.7786259541984732	167.4	117.0	-69.0
2017-08-17 13:59:40.774542	lat	lng	-0.98974609375	0.013916015625	-0.015869140625	2.381679389312977	0.015267175572519083	0.7480916030534351	167.4	117.0	-69.0
2017-08-17 13:59:40.790918	lat	lng	-0.988037109375	0.014892578125	-0.018798828125	2.2748091603053435	-0.33587786259541985	0.5038167938931297	167.4	117.0	-69.0
2017-08-17 13:59:40.808369	lat	lng	-0.988525390625	0.019287109375	-0.018798828125	2.6106870229007635	-0.04580152671755725	0.7938931297709924	167.4	117.0	-69.0
2017-08-17 13:59:40.824859	lat	lng	-0.990234375	0.0107421875	-0.01513671875	2.3206106870229006	0.16793893129770993	0.6717557251908397	167.4	117.0	-69.0
2017-08-17 13:59:40.842064	lat	lng	-0.98974609375	0.0126953125	-0.01318359375	2.5801526717557253	-0.15267175572519084	0.8396946564885496	167.4	117.0	-69.0
2017-08-17 13:59:40.858512	lat	lng	-0.990234375	0.01318359375	-0.015625	2.5801526717557253	0.061068702290076333	0.8091603053435115	167.4	117.0	-69.0
2017-08-17 13:59:40.875403	lat	lng	-0.98828125	0.0146484375	-0.011962890625	2.3206106870229006	-0.21374045801526717	0.7938931297709924	167.4	117.0	-69.0
2017-08-17 13:59:40.892157	lat	lng	-0.99365234375	0.010498046875	-0.0126953125	2.519083969465649	-0.061068702290076333	0.7786259541984732	167.4	117.0	-69.0
2017-08-17 13:59:40.908977	lat	lng	-0.993408203125	0.01611328125	-0.017822265625	2.4885496183206106	-0.24427480916030533	0.7633587786259542	167.4	117.0	-69.0
2017-08-17 13:59:40.926890	lat	lng	-0.991455078125	0.015869140625	-0.017333984375	2.4427480916030535	0.015267175572519083	0.9618320610687023	167.4	117.0	-69.0
2017-08-17 13:59:40.943213	lat	lng	-0.989013671875	0.019287109375	-0.01708984375	2.7022900763358777	-0.061068702290076333	0.7938931297709924	167.4	117.0	-69.0
2017-08-17 13:59:40.959472	lat	lng	-0.990966796875	0.01318359375	-0.01611328125	2.50381679389313	-0.3969465648854962	0.8702290076335878	167.4	117.0	-69.0
2017-08-17 13:59:40.975934	lat	lng	-0.9921875	0.01611328125	-0.01025390625	2.595419847328244	-0.366412213740458	0.7633587786259542	167.4	117.0	-69.0
2017-08-17 13:59:40.992189	lat	lng	-0.9951171875	0.01416015625	-0.017333984375	2.6259541984732824	-0.183206106870229	0.8244274809160306	167.4	117.0	-69.0
2017-08-17 13:59:41.009543	lat	lng	-0.969970703125	-0.03173828125	-0.018310546875	2.33587786259542	-1.099236641221374	1.5114503816793894	167.4	117.0	-69.0
2017-08-17 13:59:41.025997	lat	lng	-0.96484375	0.0126953125	-0.009521484375	2.2748091603053435	0.3816793893129771	0.9312977099236641	167.4	117.0	-69.0
2017-08-17 13:59:41.042325	lat	lng	-1.03076171875	0.039306640625	-0.01220703125	2.595419847328244	-0.5038167938931297	0.7786259541984732	167.4	117.0	-69.0
2017-08-17 13:59:41.059181	lat	lng	-0.984375	0.02001953125	-0.024658203125	2.7480916030534353	-3.9083969465648853	0.7786259541984732	167.4	117.0	-69.0
2017-08-17 13:59:41.076357	lat	lng	-0.9970703125	0.02490234375	-0.01513671875	2.564885496183206	-0.2900763358778626	0.9618320610687023	167.4	117.0	-69.0
2017-08-17 13:59:41.093442	lat	lng	-0.993896484375	0.013427734375	-0.019775390625	2.519083969465649	-0.3053435114503817	1.0381679389312977	167.4	117.0	-69.0
2017-08-17 13:59:41.110355	lat	lng	-0.9892578125	0.00732421875	-0.015869140625	2.549618320610687	-0.07633587786259542	0.8091603053435115	167.4	117.0	-69.0
2017-08-17 13:59:41.127525	lat	lng	-0.988037109375	0.013671875	-0.0146484375	2.4580152671755724	-0.24427480916030533	0.7480916030534351	167.4	117.0	-69.0
2017-08-17 13:59:41.144428	lat	lng	-0.96630859375	0.0048828125	-0.01806640625	2.519083969465649	-0.07633587786259542	0.6412213740458015	167.4	117.0	-69.0
2017-08-17 13:59:41.161552	lat	lng	-0.9990234375	-0.005126953125	-0.014892578125	2.8091603053435112	-0.21374045801526717	0.732824427480916	167.4	117.0	-69.0
2017-08-17 13:59:41.178329	lat	lng	-1.007568359375	0.01953125	-0.0126953125	2.595419847328244	-0.6870229007633588	1.099236641221374	167.4	117.0	-69.0
2017-08-17 13:59:41.195644	lat	lng	-1.008056640625	0.009033203125	-0.02587890625	2.564885496183206	-0.2900763358778626	0.8244274809160306	167.4	117.0	-69.0
2017-08-17 13:59:41.212484	lat	lng	-1.016845703125	0.046630859375	-0.013671875	2.519083969465649	-0.5648854961832062	0.5343511450381679	167.4	117.0	-69.0
2017-08-17 13:59:41.229651	lat	lng	-1.005859375	0.0322265625	-0.0244140625	2.4427480916030535	-1.083969465648855	1.1450381679389312	167.4	117.0	-69.0
2017-08-17 13:59:41.246480	lat	lng	-1.0	0.0234375	-0.017333984375	2.5801526717557253	0.15267175572519084	0.5648854961832062	167.4	117.0	-69.0
2017-08-17 13:59:41.263252	lat	lng	-1.003662109375	0.0244140625	-0.0185546875	2.50381679389313	0.061068702290076333	0.6564885496183206	167.4	117.0	-69.0
2017-08-17 13:59:41.279943	lat	lng	-0.978759765625	0.0224609375	-0.014892578125	2.4580152671755724	0.13740458015267176	0.6259541984732825	167.4	117.0	-69.0
2017-08-17 13:59:41.296864	lat	lng	-0.997802734375	0.01611328125	-0.01513671875	2.595419847328244	-0.32061068702290074	0.9465648854961832	167.4	117.0	-69.0
2017-08-17 13:59:41.318537	lat	lng	-0.969970703125	0.007080078125	-0.010986328125	2.381679389312977	-0.2900763358778626	0.8396946564885496	167.4	117.0	-69.0
2017-08-17 13:59:41.340641	lat	lng	-0.986328125	0.005126953125	-0.018310546875	2.4732824427480917	-3.9083969465648853	0.7480916030534351	167.4	117.0	-69.0
2017-08-17 13:59:41.362647	lat	lng	-0.99658203125	0.018310546875	-0.01708984375	2.4580152671755724	-0.12213740458015267	0.9312977099236641	167.4	117.0	-69.0
2017-08-17 13:59:41.384910	lat	lng	-0.994384765625	0.015869140625	-0.013916015625	2.366412213740458	-0.15267175572519084	0.8549618320610687	167.4	117.0	-69.0
2017-08-17 13:59:41.407070	lat	lng	-1.004150390625	0.0078125	-0.01806640625	2.50381679389313	-0.2595419847328244	0.8702290076335878	167.4	117.0	-69.0
2017-08-17 13:59:41.429115	lat	lng	-0.98974609375	0.0185546875	-0.015869140625	2.3969465648854964	-0.22900763358778625	0.7938931297709924	167.4	117.0	-69.0
2017-08-17 13:59:41.451621	lat	lng	-0.99072265625	0.01025390625	-0.019287109375	2.5343511450381677	-0.32061068702290074	1.0229007633587786	167.4	117.0	-69.0
2017-08-17 13:59:41.475012	lat	lng	-0.9921875	0.014892578125	-0.01171875	2.4732824427480917	-0.5801526717557252	0.6412213740458015	167.4	117.0	-69.0
2017-08-17 13:59:41.498722	lat	lng	-0.98876953125	0.01708984375	-0.02197265625	2.5343511450381677	0.10687022900763359	0.7633587786259542	167.4	117.0	-69.0
2017-08-17 13:59:41.522556	lat	lng	-0.998291015625	0.01171875	-0.03759765625	2.4122137404580153	-0.8396946564885496	0.6717557251908397	167.4	117.0	-69.0
2017-08-17 13:59:41.546991	lat	lng	-0.99169921875	0.0146484375	-0.019287109375	2.4580152671755724	-0.42748091603053434	0.9007633587786259	167.4	117.0	-69.0
2017-08-17 13:59:41.572148	lat	lng	-0.99462890625	0.011962890625	-0.013427734375	2.549618320610687	-0.8854961832061069	0.9923664122137404	167.4	117.0	-69.0
2017-08-17 13:59:41.594109	lat	lng	-0.993408203125	0.017333984375	-0.019287109375	2.519083969465649	-0.42748091603053434	0.8396946564885496	167.4	117.0	-69.0
2017-08-17 13:59:41.615800	lat	lng	-0.98876953125	0.0146484375	-0.015625	2.7480916030534353	-0.2748091603053435	0.7175572519083969	167.4	117.0	-69.0
2017-08-17 13:59:41.633410	lat	lng	-0.99169921875	0.018310546875	-0.01220703125	2.4122137404580153	-0.10687022900763359	1.0229007633587786	167.4	117.0	-69.0
2017-08-17 13:59:41.652331	lat	lng	-0.990966796875	0.013427734375	-0.01416015625	2.4427480916030535	0.183206106870229	0.7633587786259542	167.4	117.0	-69.0
2017-08-17 13:59:41.669745	lat	lng	-0.9921875	0.012939453125	-0.008056640625	2.519083969465649	-1.099236641221374	0.7633587786259542	167.4	117.0	-69.0
2017-08-17 13:59:41.688982	lat	lng	-0.99267578125	0.01025390625	-0.021240234375	2.549618320610687	0.183206106870229	0.916030534351145	167.4	117.0	-69.0
2017-08-17 13:59:41.707262	lat	lng	-0.9873046875	0.01123046875	-0.009765625	2.4122137404580153	-0.9007633587786259	0.8396946564885496	167.4	117.0	-69.0
2017-08-17 13:59:41.726390	lat	lng	-0.99462890625	0.013427734375	-0.020263671875	2.5343511450381677	0.2900763358778626	1.0229007633587786	167.4	117.0	-69.0
2017-08-17 13:59:41.744146	lat	lng	-0.987548828125	0.016357421875	-0.01318359375	2.732824427480916	-0.0916030534351145	0.7938931297709924	167.4	117.0	-69.0
2017-08-17 13:59:41.761863	lat	lng	-0.9921875	0.014404296875	-0.01904296875	2.213740458015267	-0.10687022900763359	0.7938931297709924	167.4	117.0	-69.0
2017-08-17 13:59:41.779662	lat	lng	-0.990966796875	0.01416015625	-0.015625	2.427480916030534	-0.2900763358778626	0.8702290076335878	167.4	117.0	-69.0
2017-08-17 13:59:41.797290	lat	lng	-0.989990234375	0.010986328125	-0.0224609375	2.16793893129771	-0.48854961832061067	0.7175572519083969	167.4	117.0	-69.0
2017-08-17 13:59:41.814616	lat	lng	-0.990478515625	0.014404296875	-0.01416015625	2.351145038167939	-0.16793893129770993	0.7633587786259542	167.4	117.0	-69.0
2017-08-17 13:59:41.831812	lat	lng	-0.9912109375	0.0107421875	-0.0166015625	2.6564885496183206	-0.07633587786259542	0.9618320610687023	167.4	117.0	-69.0
2017-08-17 13:59:41.849015	lat	lng	-0.989990234375	0.01171875	-0.010986328125	2.381679389312977	-0.16793893129770993	0.7633587786259542	167.4	117.0	-69.0
2017-08-17 13:59:41.866316	lat	lng	-0.990478515625	0.01806640625	-0.01318359375	2.6259541984732824	3.8931297709923665	0.732824427480916	167.4	117.0	-69.0
2017-08-17 13:59:41.883839	lat	lng	-0.989990234375	0.01171875	-0.018798828125	2.7022900763358777	-0.21374045801526717	0.7022900763358778	167.4	117.0	-69.0
2017-08-17 13:59:41.901046	lat	lng	-0.99072265625	0.014404296875	-0.01806640625	2.381679389312977	-0.21374045801526717	1.0076335877862594	167.4	117.0	-69.0
2017-08-17 13:59:41.918277	lat	lng	-0.991943359375	0.012451171875	-0.005126953125	2.4885496183206106	-0.44274809160305345	0.6106870229007634	167.4	117.0	-69.0
2017-08-17 13:59:41.935585	lat	lng	-0.9921875	0.015625	-0.01708984375	2.3053435114503817	0.12213740458015267	0.9312977099236641	167.4	117.0	-69.0
2017-08-17 13:59:41.952957	lat	lng	-0.990234375	0.0166015625	-0.015869140625	2.4427480916030535	0.015267175572519083	0.5954198473282443	167.4	117.0	-69.0
2017-08-17 13:59:41.970189	lat	lng	-0.9921875	0.0126953125	-0.01953125	2.549618320610687	-0.0916030534351145	0.9618320610687023	167.4	117.0	-69.0
2017-08-17 13:59:41.987662	lat	lng	-0.997314453125	0.015625	-0.0166015625	2.5801526717557253	-0.366412213740458	0.9465648854961832	167.4	117.0	-69.0
2017-08-17 13:59:42.005062	lat	lng	-0.991943359375	0.014404296875	-0.020751953125	2.519083969465649	-0.12213740458015267	0.8091603053435115	167.4	117.0	-69.0
2017-08-17 13:59:42.022396	lat	lng	-0.994873046875	0.015625	-0.01953125	2.4122137404580153	0.04580152671755725	1.0076335877862594	167.4	117.0	-69.0
2017-08-17 13:59:42.039612	lat	lng	-0.993896484375	0.011474609375	-0.01806640625	2.4427480916030535	-0.12213740458015267	0.6259541984732825	167.4	117.0	-69.0
2017-08-17 13:59:42.056949	lat	lng	-0.987548828125	0.01416015625	-0.010498046875	2.564885496183206	-0.3511450381679389	0.9465648854961832	167.4	117.0	-69.0
2017-08-17 13:59:42.074189	lat	lng	-0.990478515625	0.015625	-0.01806640625	2.7938931297709924	0.04580152671755725	0.9923664122137404	167.4	117.0	-69.0
2017-08-17 13:59:42.091432	lat	lng	-0.98828125	0.01025390625	-0.021484375	2.4580152671755724	0.07633587786259542	0.732824427480916	167.4	117.0	-69.0
2017-08-17 13:59:42.108628	lat	lng	-0.991943359375	0.0146484375	-0.017578125	2.427480916030534	-0.1984732824427481	0.8854961832061069	167.4	117.0	-69.0
2017-08-17 13:59:42.126165	lat	lng	-0.99072265625	0.014404296875	-0.005615234375	2.5343511450381677	-0.732824427480916	0.8244274809160306	167.4	117.0	-69.0
2017-08-17 13:59:42.143398	lat	lng	-0.9892578125	0.01904296875	-0.0146484375	2.7480916030534353	0.015267175572519083	0.9923664122137404	167.4	117.0	-69.0
2017-08-17 13:59:42.160667	lat	lng	-0.989013671875	0.010009765625	-0.004638671875	2.564885496183206	0.183206106870229	0.8854961832061069	167.4	117.0	-69.0
2017-08-17 13:59:42.177886	lat	lng	-0.992431640625	0.01416015625	-0.025146484375	2.2748091603053435	0.48854961832061067	0.549618320610687	167.4	117.0	-69.0
2017-08-17 13:59:42.195161	lat	lng	-0.989501953125	0.0166015625	-0.0283203125	2.5343511450381677	-0.42748091603053434	0.5954198473282443	167.4	117.0	-69.0
2017-08-17 13:59:42.212406	lat	lng	-0.993408203125	0.0126953125	-0.03173828125	2.50381679389313	-0.24427480916030533	0.6717557251908397	167.4	117.0	-69.0
2017-08-17 13:59:42.440247	lat	lng	-0.98974609375	0.01220703125	-0.006103515625	2.4427480916030535	-0.3053435114503817	0.5648854961832062	167.4	117.0	-69.0
2017-08-17 13:59:42.464949	lat	lng	-0.988037109375	0.010986328125	-0.020751953125	2.5343511450381677	-0.15267175572519084	0.8549618320610687	167.4	117.0	-69.0
2017-08-17 13:59:42.488507	lat	lng	-0.99267578125	0.014892578125	-0.024658203125	2.4885496183206106	-0.030534351145038167	0.6412213740458015	167.4	117.0	-69.0
2017-08-17 13:59:42.512889	lat	lng	-0.99755859375	0.015380859375	-0.02099609375	2.122137404580153	-0.15267175572519084	0.9007633587786259	167.4	117.0	-69.0
2017-08-17 13:59:42.534517	lat	lng	-0.98583984375	0.0205078125	-0.01513671875	2.50381679389313	-0.1984732824427481	0.8702290076335878	167.4	117.0	-69.0
2017-08-17 13:59:42.557896	lat	lng	-0.995361328125	0.01318359375	-0.01318359375	2.564885496183206	-0.015267175572519083	0.8091603053435115	167.4	117.0	-69.0
2017-08-17 13:59:42.581283	lat	lng	-0.995849609375	0.01318359375	-0.022705078125	2.4580152671755724	0.061068702290076333	0.9923664122137404	167.4	117.0	-69.0
2017-08-17 13:59:42.604572	lat	lng	-0.98974609375	0.0126953125	-0.02294921875	2.2748091603053435	-0.3816793893129771	0.8396946564885496	167.4	117.0	-69.0
2017-08-17 13:59:42.628171	lat	lng	-0.988525390625	0.01318359375	-0.017578125	2.2442748091603053	-0.2900763358778626	0.7633587786259542	167.4	117.0	-69.0
2017-08-17 13:59:42.651862	lat	lng	-0.99267578125	0.01904296875	-0.009033203125	2.519083969465649	-0.22900763358778625	0.8549618320610687	167.4	117.0	-69.0
2017-08-17 13:59:42.675150	lat	lng	-0.992919921875	0.015869140625	-0.011962890625	2.519083969465649	-0.2595419847328244	1.0687022900763359	167.4	117.0	-69.0
2017-08-17 13:59:42.698803	lat	lng	-0.99365234375	0.01318359375	-0.020263671875	2.564885496183206	-3.9083969465648853	0.6106870229007634	167.4	117.0	-69.0
2017-08-17 13:59:42.721638	lat	lng	-0.993896484375	0.00927734375	-0.02099609375	2.351145038167939	-0.061068702290076333	1.0687022900763359	167.4	117.0	-69.0
2017-08-17 13:59:42.745095	lat	lng	-0.991455078125	0.0068359375	-0.017822265625	2.519083969465649	-0.3053435114503817	0.8854961832061069	167.4	117.0	-69.0
2017-08-17 13:59:42.768896	lat	lng	-0.989013671875	0.018798828125	-0.017822265625	2.2442748091603053	0.061068702290076333	0.8854961832061069	167.4	117.0	-69.0
2017-08-17 13:59:42.791295	lat	lng	-0.9921875	0.013427734375	-0.013916015625	2.7938931297709924	-0.04580152671755725	0.916030534351145	167.4	117.0	-69.0
2017-08-17 13:59:42.814325	lat	lng	-0.992919921875	0.010986328125	-0.01123046875	2.2748091603053435	-0.10687022900763359	0.916030534351145	167.4	117.0	-69.0
2017-08-17 13:59:42.835711	lat	lng	-0.99267578125	0.0166015625	-0.015380859375	2.5801526717557253	-0.2900763358778626	0.8091603053435115	167.4	117.0	-69.0
2017-08-17 13:59:42.857494	lat	lng	-0.992431640625	0.009521484375	-0.009765625	2.366412213740458	0.07633587786259542	0.7633587786259542	167.4	117.0	-69.0
2017-08-17 13:59:42.886919	lat	lng	-0.992431640625	0.013671875	-0.0185546875	2.5801526717557253	-0.030534351145038167	1.0076335877862594	167.4	117.0	-69.0
2017-08-17 13:59:42.908345	lat	lng	-0.990966796875	0.018798828125	-0.030029296875	2.4732824427480917	-0.33587786259541985	0.9007633587786259	167.4	117.0	-69.0
2017-08-17 13:59:42.930256	lat	lng	-0.99169921875	0.01171875	-0.00927734375	2.5801526717557253	-0.0916030534351145	0.8396946564885496	167.4	117.0	-69.0
2017-08-17 13:59:42.951888	lat	lng	-0.99072265625	0.01416015625	-0.01611328125	2.427480916030534	-0.183206106870229	0.9770992366412213	167.4	117.0	-69.0
2017-08-17 13:59:42.975314	lat	lng	-0.987548828125	0.012939453125	-0.022216796875	2.595419847328244	-0.07633587786259542	0.8549618320610687	167.4	117.0	-69.0
2017-08-17 13:59:43.000136	lat	lng	-0.995361328125	0.013671875	-0.02197265625	2.519083969465649	-0.22900763358778625	0.9618320610687023	167.4	117.0	-69.0
2017-08-17 13:59:43.030779	lat	lng	-0.989990234375	0.0146484375	-0.01513671875	2.381679389312977	-0.24427480916030533	0.8854961832061069	167.4	117.0	-69.0
2017-08-17 13:59:43.070595	lat	lng	-0.991455078125	0.01513671875	-0.01611328125	2.6412213740458017	0.04580152671755725	0.916030534351145	167.4	117.0	-69.0
2017-08-17 13:59:43.092216	lat	lng	-0.989501953125	0.010986328125	-0.011474609375	2.4732824427480917	0.07633587786259542	0.9007633587786259	167.4	117.0	-69.0
2017-08-17 13:59:43.112891	lat	lng	-0.992431640625	0.015625	-0.02294921875	2.3206106870229006	-0.33587786259541985	0.7480916030534351	167.4	117.0	-69.0
2017-08-17 13:59:43.134943	lat	lng	-0.990478515625	0.012451171875	-0.012451171875	2.7022900763358777	-0.13740458015267176	0.8702290076335878	167.4	117.0	-69.0
2017-08-17 13:59:43.157103	lat	lng	-0.993896484375	0.01611328125	-0.016357421875	2.366412213740458	-0.12213740458015267	0.8244274809160306	167.4	117.0	-69.0
2017-08-17 13:59:43.179330	lat	lng	-0.991943359375	0.013427734375	-0.013671875	2.8244274809160306	-0.3511450381679389	0.8702290076335878	167.4	117.0	-69.0
2017-08-17 13:59:43.201526	lat	lng	-0.98828125	0.018798828125	-0.01806640625	2.687022900763359	-0.04580152671755725	0.8396946564885496	167.4	117.0	-69.0
2017-08-17 13:59:43.223537	lat	lng	-0.99169921875	0.01318359375	-0.021484375	2.7022900763358777	-0.10687022900763359	0.5954198473282443	167.4	117.0	-69.0
2017-08-17 13:59:43.245661	lat	lng	-0.9912109375	0.010498046875	-0.015380859375	2.6412213740458017	-0.030534351145038167	0.7786259541984732	167.4	117.0	-69.0
2017-08-17 13:59:43.267812	lat	lng	-0.98974609375	0.01220703125	-0.02099609375	2.4885496183206106	-0.12213740458015267	0.8549618320610687	167.4	117.0	-69.0
2017-08-17 13:59:43.289659	lat	lng	-0.98974609375	0.01318359375	-0.01953125	2.4885496183206106	-0.0916030534351145	0.7786259541984732	167.4	117.0	-69.0
2017-08-17 13:59:43.310611	lat	lng	-0.98974609375	0.015380859375	-0.01953125	2.33587786259542	-0.10687022900763359	0.5954198473282443	167.4	117.0	-69.0
2017-08-17 13:59:43.332221	lat	lng	-0.9951171875	0.015625	-0.01708984375	2.381679389312977	-0.3053435114503817	1.0229007633587786	167.4	117.0	-69.0
2017-08-17 13:59:43.354115	lat	lng	-0.989501953125	0.0146484375	-0.01513671875	2.427480916030534	-0.21374045801526717	0.8549618320610687	167.4	117.0	-69.0
2017-08-17 13:59:43.376047	lat	lng	-0.989990234375	0.0126953125	-0.020751953125	2.351145038167939	-0.2900763358778626	0.9007633587786259	167.4	117.0	-69.0
2017-08-17 13:59:43.398245	lat	lng	-0.989501953125	0.013671875	-0.01806640625	2.3969465648854964	-0.15267175572519084	0.7938931297709924	167.4	117.0	-69.0
2017-08-17 13:59:43.420562	lat	lng	-0.98974609375	0.01708984375	-0.02001953125	2.549618320610687	-0.3969465648854962	0.8244274809160306	167.4	117.0	-69.0
2017-08-17 13:59:43.442626	lat	lng	-0.989990234375	0.016357421875	-0.017333984375	2.4885496183206106	-0.15267175572519084	0.8549618320610687	167.4	117.0	-69.0
2017-08-17 13:59:43.464673	lat	lng	-0.9912109375	0.013671875	-0.009521484375	2.4122137404580153	-0.32061068702290074	0.9007633587786259	167.4	117.0	-69.0
2017-08-17 13:59:43.488044	lat	lng	-0.99365234375	0.01171875	-0.022216796875	2.2900763358778624	0.16793893129770993	0.8702290076335878	167.4	117.0	-69.0
2017-08-17 13:59:43.511939	lat	lng	-0.990234375	0.013427734375	-0.0146484375	2.5801526717557253	-0.2748091603053435	0.8091603053435115	167.4	117.0	-69.0
2017-08-17 13:59:43.534848	lat	lng	-0.9931640625	0.015625	-0.0126953125	2.366412213740458	-0.04580152671755725	0.5343511450381679	167.4	117.0	-69.0
2017-08-17 13:59:43.557463	lat	lng	-0.990966796875	0.014404296875	-0.02001953125	2.687022900763359	-0.07633587786259542	0.8244274809160306	167.4	117.0	-69.0
2017-08-17 13:59:43.578555	lat	lng	-0.9912109375	0.012451171875	-0.0146484375	2.5343511450381677	0.07633587786259542	0.7175572519083969	167.4	117.0	-69.0
2017-08-17 13:59:43.599623	lat	lng	-0.9931640625	0.01513671875	-0.015380859375	2.366412213740458	-0.2748091603053435	0.916030534351145	167.4	117.0	-69.0
2017-08-17 13:59:43.620914	lat	lng	-0.9931640625	0.01611328125	-0.0185546875	2.3206106870229006	-0.04580152671755725	1.0076335877862594	167.4	117.0	-69.0
2017-08-17 13:59:43.641804	lat	lng	-0.992919921875	0.015869140625	-0.010986328125	2.4885496183206106	0.15267175572519084	0.7633587786259542	167.4	117.0	-69.0
2017-08-17 13:59:43.662604	lat	lng	-0.993896484375	0.015869140625	-0.02001953125	2.3969465648854964	-0.15267175572519084	0.8549618320610687	167.4	117.0	-69.0
2017-08-17 13:59:43.683746	lat	lng	-0.9892578125	0.015869140625	-0.019775390625	2.4885496183206106	-0.33587786259541985	0.7786259541984732	167.4	117.0	-69.0
2017-08-17 13:59:43.704606	lat	lng	-0.988037109375	0.011474609375	-0.021728515625	2.6564885496183206	-0.24427480916030533	0.9007633587786259	167.4	117.0	-69.0
2017-08-17 13:59:43.725466	lat	lng	-0.9951171875	0.01806640625	-0.015380859375	2.427480916030534	0.04580152671755725	0.916030534351145	167.4	117.0	-69.0
2017-08-17 13:59:43.746755	lat	lng	-0.988037109375	0.015380859375	-0.00927734375	2.717557251908397	0.07633587786259542	0.6259541984732825	167.4	117.0	-69.0
2017-08-17 13:59:43.767690	lat	lng	-0.99169921875	0.011962890625	-0.008544921875	2.3969465648854964	0.10687022900763359	0.7480916030534351	167.4	117.0	-69.0
2017-08-17 13:59:43.789693	lat	lng	-0.991455078125	0.010009765625	-0.022216796875	2.4732824427480917	-0.22900763358778625	0.7175572519083969	167.4	117.0	-69.0
2017-08-17 13:59:43.812431	lat	lng	-0.9912109375	0.01318359375	-0.017822265625	2.4732824427480917	-0.4122137404580153	0.9770992366412213	167.4	117.0	-69.0
2017-08-17 13:59:43.834911	lat	lng	-0.989990234375	0.01318359375	-0.01318359375	2.519083969465649	-0.2900763358778626	0.9007633587786259	167.4	117.0	-69.0
2017-08-17 13:59:43.856633	lat	lng	-0.990234375	0.014404296875	-0.015869140625	2.549618320610687	-0.12213740458015267	1.0229007633587786	167.4	117.0	-69.0
2017-08-17 13:59:43.879626	lat	lng	-0.99267578125	0.0126953125	-0.022216796875	2.381679389312977	-0.13740458015267176	0.7786259541984732	167.4	117.0	-69.0
2017-08-17 13:59:43.901926	lat	lng	-0.991455078125	0.013427734375	-0.0205078125	2.4885496183206106	-0.12213740458015267	0.6717557251908397	167.4	117.0	-69.0
2017-08-17 13:59:43.923706	lat	lng	-0.98828125	0.015380859375	-0.013916015625	2.564885496183206	-0.2595419847328244	0.8396946564885496	167.4	117.0	-69.0
2017-08-17 13:59:43.951914	lat	lng	-0.989501953125	0.011962890625	-0.0126953125	2.6717557251908395	-0.2748091603053435	1.0076335877862594	167.4	117.0	-69.0
2017-08-17 13:59:43.968883	lat	lng	-0.98779296875	0.013427734375	-0.015380859375	2.5343511450381677	0.015267175572519083	0.8854961832061069	167.4	117.0	-69.0
2017-08-17 13:59:43.987421	lat	lng	-0.98974609375	0.016845703125	-0.010009765625	2.351145038167939	-0.13740458015267176	0.8091603053435115	167.4	117.0	-69.0
2017-08-17 13:59:44.005973	lat	lng	-0.9892578125	0.012939453125	-0.015869140625	2.4885496183206106	0.0916030534351145	0.6259541984732825	167.4	117.0	-69.0
2017-08-17 13:59:44.024825	lat	lng	-0.990966796875	0.01171875	-0.01953125	2.4427480916030535	-0.15267175572519084	0.8702290076335878	167.4	117.0	-69.0
2017-08-17 13:59:44.042609	lat	lng	-0.98779296875	0.019287109375	-0.018310546875	2.4427480916030535	-0.366412213740458	0.8702290076335878	167.4	117.0	-69.0
2017-08-17 13:59:44.059799	lat	lng	-0.988525390625	0.015380859375	-0.013671875	2.4122137404580153	0.030534351145038167	0.8854961832061069	167.4	117.0	-69.0
2017-08-17 13:59:44.077163	lat	lng	-0.994873046875	0.01708984375	-0.01416015625	2.2900763358778624	0.10687022900763359	0.9770992366412213	167.4	117.0	-69.0
2017-08-17 13:59:44.094246	lat	lng	-0.98828125	0.013671875	-0.014404296875	2.3969465648854964	-0.24427480916030533	0.9923664122137404	167.4	117.0	-69.0
2017-08-17 13:59:44.110906	lat	lng	-0.99169921875	0.012451171875	-0.01513671875	2.519083969465649	0.030534351145038167	0.9312977099236641	167.4	117.0	-69.0
2017-08-17 13:59:44.128105	lat	lng	-0.9921875	0.01318359375	-0.021240234375	2.3053435114503817	-3.9083969465648853	0.7938931297709924	167.4	117.0	-69.0
2017-08-17 13:59:44.144852	lat	lng	-0.9873046875	0.0166015625	-0.01806640625	2.2290076335877864	0.030534351145038167	0.6870229007633588	167.4	117.0	-69.0
2017-08-17 13:59:44.162276	lat	lng	-0.9892578125	0.015869140625	-0.019287109375	2.3206106870229006	-0.10687022900763359	0.9007633587786259	167.4	117.0	-69.0
2017-08-17 13:59:44.178932	lat	lng	-0.98779296875	0.01318359375	-0.012939453125	2.4885496183206106	-0.32061068702290074	0.8396946564885496	167.4	117.0	-69.0
2017-08-17 13:59:44.196735	lat	lng	-0.989013671875	0.0166015625	-0.01318359375	2.4122137404580153	-0.183206106870229	0.7022900763358778	167.4	117.0	-69.0
2017-08-17 13:59:44.213811	lat	lng	-0.990234375	0.0146484375	-0.009033203125	2.4122137404580153	0.0	0.7786259541984732	167.4	117.0	-69.0
2017-08-17 13:59:44.231185	lat	lng	-0.986083984375	0.015380859375	-0.015869140625	2.3969465648854964	-0.015267175572519083	0.9618320610687023	167.4	117.0	-69.0
2017-08-17 13:59:44.253792	lat	lng	-0.99072265625	0.014892578125	-0.0234375	2.5801526717557253	-0.13740458015267176	0.9770992366412213	167.4	117.0	-69.0
2017-08-17 13:59:44.271543	lat	lng	-0.98388671875	0.011474609375	-0.01953125	2.4427480916030535	-0.21374045801526717	0.9465648854961832	167.4	117.0	-69.0
2017-08-17 13:59:44.296015	lat	lng	-0.99267578125	0.01513671875	-0.015869140625	2.4427480916030535	-0.24427480916030533	0.6717557251908397	167.4	117.0	-69.0
2017-08-17 13:59:44.312845	lat	lng	-0.99169921875	0.011474609375	-0.016845703125	2.7480916030534353	-0.04580152671755725	0.7022900763358778	167.4	117.0	-69.0
2017-08-17 13:59:44.332752	lat	lng	-0.989501953125	0.0146484375	-0.00927734375	2.4732824427480917	-0.3511450381679389	0.732824427480916	167.4	117.0	-69.0
2017-08-17 13:59:44.350427	lat	lng	-0.990966796875	0.01123046875	-0.02001953125	2.366412213740458	-0.16793893129770993	0.7633587786259542	167.4	117.0	-69.0
2017-08-17 13:59:44.368082	lat	lng	-0.990966796875	0.01318359375	-0.01708984375	2.6564885496183206	-0.22900763358778625	0.8854961832061069	167.4	117.0	-69.0
2017-08-17 13:59:44.384889	lat	lng	-0.993408203125	0.01318359375	-0.02197265625	2.564885496183206	-0.061068702290076333	0.8702290076335878	167.4	117.0	-69.0
2017-08-17 13:59:44.402391	lat	lng	-0.994873046875	0.019287109375	-0.015380859375	2.687022900763359	-0.030534351145038167	0.732824427480916	167.4	117.0	-69.0
2017-08-17 13:59:44.419468	lat	lng	-0.9921875	0.013427734375	-0.016845703125	2.5801526717557253	-0.16793893129770993	0.8244274809160306	167.4	117.0	-69.0
2017-08-17 13:59:44.442522	lat	lng	-0.99267578125	0.01904296875	-0.00830078125	2.519083969465649	-0.030534351145038167	0.6717557251908397	167.4	117.0	-69.0
2017-08-17 13:59:44.459892	lat	lng	-0.992431640625	0.01708984375	-0.028076171875	2.3969465648854964	0.04580152671755725	0.9618320610687023	167.4	117.0	-69.0
2017-08-17 13:59:44.477925	lat	lng	-0.9892578125	0.016845703125	-0.013671875	2.5343511450381677	-0.0916030534351145	0.9465648854961832	167.4	117.0	-69.0
2017-08-17 13:59:44.495499	lat	lng	-0.990966796875	0.015625	-0.015625	2.427480916030534	-0.015267175572519083	0.6870229007633588	167.4	117.0	-69.0
2017-08-17 13:59:44.513328	lat	lng	-0.99462890625	0.01220703125	-0.015869140625	2.381679389312977	-0.15267175572519084	0.7175572519083969	167.4	117.0	-69.0
2017-08-17 13:59:44.530748	lat	lng	-0.9931640625	0.01513671875	-0.017822265625	2.6564885496183206	-0.12213740458015267	0.916030534351145	167.4	117.0	-69.0
2017-08-17 13:59:44.547815	lat	lng	-0.9892578125	0.014404296875	-0.016357421875	2.595419847328244	-0.12213740458015267	0.9618320610687023	167.4	117.0	-69.0
2017-08-17 13:59:44.565946	lat	lng	-0.9912109375	0.01611328125	-0.016845703125	2.4580152671755724	-0.061068702290076333	1.0381679389312977	167.4	117.0	-69.0
2017-08-17 13:59:44.583252	lat	lng	-0.99267578125	0.0146484375	-0.023193359375	2.366412213740458	-0.030534351145038167	0.8549618320610687	167.4	117.0	-69.0
2017-08-17 13:59:44.599816	lat	lng	-0.990966796875	0.017578125	-0.009521484375	2.3969465648854964	-0.1984732824427481	0.9618320610687023	167.4	117.0	-69.0
2017-08-17 13:59:44.616429	lat	lng	-0.994140625	0.01025390625	-0.02734375	2.6259541984732824	-0.2900763358778626	0.8091603053435115	167.4	117.0	-69.0
2017-08-17 13:59:44.632960	lat	lng	-0.992431640625	0.013671875	-0.016357421875	2.4732824427480917	-0.10687022900763359	1.1755725190839694	167.4	117.0	-69.0
2017-08-17 13:59:44.649619	lat	lng	-0.9921875	0.015625	-0.020263671875	2.6412213740458017	0.07633587786259542	0.5954198473282443	167.4	117.0	-69.0
2017-08-17 13:59:44.671476	lat	lng	-0.98876953125	0.016845703125	-0.015625	2.3053435114503817	-0.10687022900763359	0.8702290076335878	167.4	117.0	-69.0
2017-08-17 13:59:44.693927	lat	lng	-0.98828125	0.01611328125	-0.013916015625	2.351145038167939	-0.0916030534351145	0.7633587786259542	167.4	117.0	-69.0
2017-08-17 13:59:44.725931	lat	lng	-0.99462890625	0.01416015625	-0.0205078125	2.4580152671755724	3.8931297709923665	0.8091603053435115	167.4	117.0	-69.0
2017-08-17 13:59:44.748155	lat	lng	-0.992919921875	0.011474609375	-0.020751953125	2.50381679389313	-0.24427480916030533	0.9465648854961832	167.4	117.0	-69.0
2017-08-17 13:59:44.779038	lat	lng	-0.992919921875	0.012939453125	-0.0146484375	2.595419847328244	-0.0916030534351145	1.0076335877862594	167.4	117.0	-69.0
2017-08-17 13:59:44.800631	lat	lng	-0.995849609375	0.013427734375	-0.015380859375	2.3969465648854964	-0.183206106870229	1.0534351145038168	167.4	117.0	-69.0
2017-08-17 13:59:44.822233	lat	lng	-0.9951171875	0.017822265625	-0.019775390625	2.519083969465649	-0.1984732824427481	0.9923664122137404	167.4	117.0	-69.0
2017-08-17 13:59:44.846564	lat	lng	-0.989013671875	0.01220703125	-0.023681640625	2.519083969465649	-0.4732824427480916	0.6870229007633588	167.4	117.0	-69.0
2017-08-17 13:59:44.872324	lat	lng	-0.9912109375	0.013427734375	-0.015625	2.4427480916030535	-0.1984732824427481	0.8549618320610687	167.4	117.0	-69.0
2017-08-17 13:59:44.889858	lat	lng	-0.989013671875	0.011474609375	-0.020751953125	2.366412213740458	-0.16793893129770993	1.0534351145038168	167.4	117.0	-69.0
2017-08-17 13:59:44.907387	lat	lng	-0.991455078125	0.012939453125	-0.017822265625	2.381679389312977	-0.183206106870229	1.083969465648855	167.4	117.0	-69.0
2017-08-17 13:59:44.924678	lat	lng	-0.9931640625	0.01953125	-0.022705078125	2.6564885496183206	-0.04580152671755725	0.8854961832061069	167.4	117.0	-69.0
2017-08-17 13:59:44.943091	lat	lng	-0.989990234375	0.0166015625	-0.011962890625	2.3053435114503817	-0.16793893129770993	0.8702290076335878	167.4	117.0	-69.0
2017-08-17 13:59:44.960228	lat	lng	-0.994873046875	0.015625	-0.0185546875	2.4732824427480917	-0.183206106870229	0.7480916030534351	167.4	117.0	-69.0
2017-08-17 13:59:44.977639	lat	lng	-0.988037109375	0.01220703125	-0.014404296875	2.5801526717557253	0.04580152671755725	0.732824427480916	167.4	117.0	-69.0
2017-08-17 13:59:44.995028	lat	lng	-0.9892578125	0.01123046875	-0.010498046875	2.5343511450381677	-0.3053435114503817	0.9923664122137404	167.4	117.0	-69.0
2017-08-17 13:59:45.012496	lat	lng	-0.992431640625	0.012939453125	-0.0224609375	2.381679389312977	-0.2595419847328244	0.7786259541984732	167.4	117.0	-69.0
2017-08-17 13:59:45.032576	lat	lng	-0.98876953125	0.0126953125	-0.01318359375	2.6717557251908395	-0.2595419847328244	0.9312977099236641	167.4	117.0	-69.0
2017-08-17 13:59:45.051304	lat	lng	-0.9931640625	0.0185546875	-0.015380859375	2.427480916030534	-0.16793893129770993	0.5648854961832062	167.4	117.0	-69.0
2017-08-17 13:59:45.069265	lat	lng	-0.989990234375	0.016357421875	-0.0244140625	2.351145038167939	0.24427480916030533	0.9770992366412213	167.4	117.0	-69.0
2017-08-17 13:59:45.088191	lat	lng	-0.98876953125	0.0126953125	0.00390625	2.427480916030534	-0.22900763358778625	0.9007633587786259	167.4	117.0	-69.0
2017-08-17 13:59:45.106798	lat	lng	-0.992431640625	0.01171875	-0.029296875	2.2442748091603053	-0.8091603053435115	0.8702290076335878	167.4	117.0	-69.0
2017-08-17 13:59:45.125296	lat	lng	-0.994140625	0.01123046875	-0.014892578125	2.4580152671755724	0.6717557251908397	0.8396946564885496	167.4	117.0	-69.0
2017-08-17 13:59:45.147724	lat	lng	-0.98876953125	0.012451171875	-0.01806640625	2.3969465648854964	-0.030534351145038167	0.916030534351145	167.4	117.0	-69.0
2017-08-17 13:59:45.164842	lat	lng	-0.99169921875	0.014404296875	-0.013671875	2.4427480916030535	-0.07633587786259542	0.8244274809160306	167.4	117.0	-69.0
2017-08-17 13:59:45.184151	lat	lng	-0.990234375	0.011962890625	-0.0205078125	2.045801526717557	-0.366412213740458	0.916030534351145	167.4	117.0	-69.0
2017-08-17 13:59:45.202470	lat	lng	-0.9892578125	0.0146484375	-0.019775390625	2.381679389312977	-0.24427480916030533	0.6717557251908397	167.4	117.0	-69.0
2017-08-17 13:59:45.221533	lat	lng	-0.994140625	0.014404296875	-0.010009765625	2.7480916030534353	0.07633587786259542	0.4732824427480916	167.4	117.0	-69.0
2017-08-17 13:59:45.239480	lat	lng	-0.9912109375	0.0126953125	-0.009033203125	2.381679389312977	-0.0916030534351145	0.916030534351145	167.4	117.0	-69.0
2017-08-17 13:59:45.260326	lat	lng	-0.98974609375	0.01806640625	-0.013916015625	2.2900763358778624	-0.3969465648854962	0.6564885496183206	167.4	117.0	-69.0
2017-08-17 13:59:45.277619	lat	lng	-0.989013671875	0.01171875	-0.01416015625	2.50381679389313	-0.12213740458015267	0.7786259541984732	167.4	117.0	-69.0
2017-08-17 13:59:45.294600	lat	lng	-0.994384765625	0.01171875	-0.017822265625	2.33587786259542	-0.3969465648854962	0.9007633587786259	167.4	117.0	-69.0
2017-08-17 13:59:45.311493	lat	lng	-0.98974609375	0.01171875	-0.015869140625	2.6564885496183206	-0.12213740458015267	0.8091603053435115	167.4	117.0	-69.0
2017-08-17 13:59:45.328324	lat	lng	-0.99267578125	0.013671875	-0.01171875	2.5343511450381677	3.8931297709923665	0.8702290076335878	167.4	117.0	-69.0
2017-08-17 13:59:45.345228	lat	lng	-0.992431640625	0.015869140625	-0.012451171875	2.50381679389313	-0.16793893129770993	0.9312977099236641	167.4	117.0	-69.0
2017-08-17 13:59:45.362032	lat	lng	-0.99072265625	0.016845703125	-0.016357421875	2.366412213740458	-0.061068702290076333	0.8702290076335878	167.4	117.0	-69.0
2017-08-17 13:59:45.378855	lat	lng	-0.989013671875	0.015625	-0.024169921875	2.4732824427480917	-0.12213740458015267	0.9923664122137404	167.4	117.0	-69.0
2017-08-17 13:59:45.395787	lat	lng	-0.9931640625	0.01220703125	-0.01220703125	2.3206106870229006	0.030534351145038167	0.8854961832061069	167.4	117.0	-69.0
2017-08-17 13:59:45.412584	lat	lng	-0.990966796875	0.01220703125	-0.01123046875	2.427480916030534	-0.22900763358778625	1.0076335877862594	167.4	117.0	-69.0
2017-08-17 13:59:45.429421	lat	lng	-0.990234375	0.010009765625	-0.002685546875	2.6564885496183206	-0.3053435114503817	0.8854961832061069	167.4	117.0	-69.0
2017-08-17 13:59:45.446323	lat	lng	-0.98828125	0.012939453125	-0.011474609375	2.366412213740458	-0.42748091603053434	0.9007633587786259	167.4	117.0	-69.0
2017-08-17 13:59:45.463117	lat	lng	-0.99169921875	0.017578125	-0.014892578125	2.4885496183206106	-0.07633587786259542	0.8091603053435115	167.4	117.0	-69.0
2017-08-17 13:59:45.479997	lat	lng	-0.990966796875	0.01806640625	-0.0146484375	2.4580152671755724	-0.04580152671755725	1.1450381679389312	167.4	117.0	-69.0
2017-08-17 13:59:45.497011	lat	lng	-0.990966796875	0.010986328125	-0.021728515625	2.519083969465649	-0.10687022900763359	0.7480916030534351	167.4	117.0	-69.0
2017-08-17 13:59:45.513934	lat	lng	-0.98974609375	0.01025390625	-0.0263671875	2.4427480916030535	0.030534351145038167	1.099236641221374	167.4	117.0	-69.0
2017-08-17 13:59:45.530763	lat	lng	-0.990478515625	0.013671875	-0.001708984375	2.381679389312977	-0.33587786259541985	0.9770992366412213	167.4	117.0	-69.0
2017-08-17 13:59:45.547587	lat	lng	-0.990478515625	0.013916015625	-0.01123046875	2.4580152671755724	-0.3969465648854962	0.8091603053435115	167.4	117.0	-69.0
2017-08-17 13:59:45.565899	lat	lng	-0.989501953125	0.01708984375	-0.009521484375	2.33587786259542	0.15267175572519084	0.9007633587786259	167.4	117.0	-69.0
2017-08-17 13:59:45.587278	lat	lng	-0.990478515625	0.016357421875	-0.0166015625	2.4122137404580153	3.8931297709923665	0.8854961832061069	167.4	117.0	-69.0
2017-08-17 13:59:45.608603	lat	lng	-0.989501953125	0.017822265625	-0.021484375	2.3969465648854964	-3.9083969465648853	0.7938931297709924	167.4	117.0	-69.0
2017-08-17 13:59:45.629920	lat	lng	-0.993896484375	0.01171875	-0.010986328125	2.351145038167939	0.04580152671755725	0.8396946564885496	167.4	117.0	-69.0
2017-08-17 13:59:45.651271	lat	lng	-0.993896484375	0.0146484375	-0.0126953125	2.4122137404580153	-0.32061068702290074	0.8091603053435115	167.4	117.0	-69.0
2017-08-17 13:59:45.672529	lat	lng	-0.990234375	0.015625	-0.01416015625	2.595419847328244	-0.4122137404580153	0.8091603053435115	167.4	117.0	-69.0
2017-08-17 13:59:45.693987	lat	lng	-0.99169921875	0.012451171875	-0.0126953125	2.6259541984732824	0.07633587786259542	0.8549618320610687	167.4	117.0	-69.0
2017-08-17 13:59:45.715253	lat	lng	-0.989990234375	0.012451171875	-0.020751953125	2.549618320610687	-0.22900763358778625	0.8396946564885496	167.4	117.0	-69.0
2017-08-17 13:59:45.736612	lat	lng	-0.989501953125	0.018798828125	-0.013427734375	2.564885496183206	-0.3053435114503817	0.5801526717557252	167.4	117.0	-69.0
2017-08-17 13:59:45.758025	lat	lng	-0.990234375	0.017333984375	-0.017578125	2.519083969465649	-0.061068702290076333	0.7022900763358778	167.4	117.0	-69.0
2017-08-17 13:59:45.779314	lat	lng	-0.990478515625	0.00830078125	-0.01806640625	2.519083969465649	-0.1984732824427481	0.9618320610687023	167.4	117.0	-69.0
2017-08-17 13:59:45.800695	lat	lng	-0.987548828125	0.01318359375	-0.0146484375	2.2900763358778624	0.13740458015267176	0.732824427480916	167.4	117.0	-69.0
