Time	Position_lat	Position_lng	Accelerometer_x	Accelerometer_y	Accelerometer_z	Gyroscope_x	Gyroscope_y	Gyroscope_z	Magnetometer_x	Magnetometer_y	Magnetometer_z
2017-08-15 12:15:31.344215	o	s	0.003662109375	0.019287109375	1.0	-3.9083969465648853	-3.9083969465648853	0.8549618320610687	192.6	252.6	40.199999999999996
2017-08-15 12:15:33.258464	o	s	0.003173828125	0.01708984375	1.001708984375	0.07633587786259542	0.07633587786259542	0.9770992366412213	192.6	252.6	40.199999999999996
2017-08-15 12:15:33.279061	o	s	0.0048828125	0.019287109375	0.9970703125	-0.07633587786259542	-0.07633587786259542	0.9770992366412213	192.6	252.6	40.199999999999996
2017-08-15 12:15:33.298975	o	s	0.002685546875	0.017578125	1.0009765625	-0.07633587786259542	-0.07633587786259542	1.1145038167938932	192.6	252.6	40.199999999999996
2017-08-15 12:15:33.318820	o	s	0.009765625	0.021240234375	1.005126953125	-0.10687022900763359	-0.10687022900763359	1.1450381679389312	192.6	252.6	40.199999999999996
2017-08-15 12:15:33.338790	o	s	0.01123046875	0.020263671875	0.999755859375	0.015267175572519083	0.015267175572519083	0.9465648854961832	192.6	252.6	40.199999999999996
2017-08-15 12:15:33.358768	o	s	0.005615234375	0.02099609375	1.0009765625	-0.04580152671755725	-0.04580152671755725	1.1603053435114503	192.6	252.6	40.199999999999996
2017-08-15 12:15:33.379169	o	s	0.005126953125	0.019287109375	0.99755859375	0.13740458015267176	0.13740458015267176	1.1145038167938932	192.6	252.6	40.199999999999996
2017-08-15 12:15:33.399322	o	s	0.00146484375	0.022216796875	1.003662109375	-0.1984732824427481	-0.1984732824427481	1.0687022900763359	192.6	252.6	40.199999999999996
2017-08-15 12:15:33.419192	o	s	0.003173828125	0.017333984375	0.998046875	0.13740458015267176	0.13740458015267176	0.9770992366412213	192.6	252.6	40.199999999999996
2017-08-15 12:15:33.439066	o	s	0.006591796875	0.01513671875	0.994140625	-0.015267175572519083	-0.015267175572519083	0.9923664122137404	192.6	252.6	40.199999999999996
2017-08-15 12:15:33.458947	o	s	0.006591796875	0.017578125	1.0	0.015267175572519083	0.015267175572519083	1.0229007633587786	192.6	252.6	40.199999999999996
2017-08-15 12:15:33.478827	o	s	0.00732421875	0.01953125	1.00341796875	-0.16793893129770993	-0.16793893129770993	0.9770992366412213	192.6	252.6	40.199999999999996
2017-08-15 12:15:33.498545	o	s	0.004638671875	0.01806640625	0.99267578125	0.13740458015267176	0.13740458015267176	1.0687022900763359	192.6	252.6	40.199999999999996
2017-08-15 12:15:33.518241	o	s	0.00439453125	0.0185546875	1.0029296875	-0.24427480916030533	-0.24427480916030533	1.0229007633587786	192.6	252.6	40.199999999999996
2017-08-15 12:15:33.538173	o	s	0.00537109375	0.02392578125	1.000244140625	0.3511450381679389	0.3511450381679389	1.0381679389312977	192.6	252.6	40.199999999999996
2017-08-15 12:15:33.558199	o	s	0.00537109375	0.0224609375	1.00146484375	0.0	0.0	1.083969465648855	192.6	252.6	40.199999999999996
2017-08-15 12:15:33.578129	o	s	0.00927734375	0.020263671875	0.999267578125	-0.12213740458015267	-0.12213740458015267	0.9923664122137404	192.6	252.6	40.199999999999996
2017-08-15 12:15:33.597856	o	s	0.010986328125	0.018798828125	0.9951171875	-0.07633587786259542	-0.07633587786259542	1.1297709923664123	192.6	252.6	40.199999999999996
2017-08-15 12:15:33.617644	o	s	0.005615234375	0.017333984375	1.002685546875	-0.183206106870229	-0.183206106870229	0.9312977099236641	192.6	252.6	40.199999999999996
2017-08-15 12:15:33.637746	o	s	0.00244140625	0.02294921875	1.00146484375	0.0916030534351145	0.0916030534351145	1.1755725190839694	192.6	252.6	40.199999999999996
2017-08-15 12:15:33.657775	o	s	0.00146484375	0.0234375	1.00830078125	0.061068702290076333	0.061068702290076333	1.0229007633587786	192.6	252.6	40.199999999999996
2017-08-15 12:15:33.677643	o	s	0.005615234375	0.02197265625	1.00439453125	-0.030534351145038167	-0.030534351145038167	0.9007633587786259	192.6	252.6	40.199999999999996
2017-08-15 12:15:33.697401	o	s	0.00830078125	0.021728515625	1.0029296875	-0.061068702290076333	-0.061068702290076333	1.0381679389312977	192.6	252.6	40.199999999999996
2017-08-15 12:15:33.717227	o	s	0.00244140625	0.0224609375	1.001708984375	-0.12213740458015267	-0.12213740458015267	1.2061068702290076	192.6	252.6	40.199999999999996
2017-08-15 12:15:33.737591	o	s	0.005126953125	0.018798828125	1.000732421875	0.030534351145038167	0.030534351145038167	1.2213740458015268	192.6	252.6	40.199999999999996
2017-08-15 12:15:33.757778	o	s	0.00390625	0.021484375	0.9990234375	0.030534351145038167	0.030534351145038167	1.3740458015267176	192.6	252.6	40.199999999999996
2017-08-15 12:15:33.777509	o	s	0.00048828125	0.023193359375	1.030029296875	-0.24427480916030533	-0.24427480916030533	1.0687022900763359	192.6	252.6	40.199999999999996
2017-08-15 12:15:33.797408	o	s	0.003662109375	0.017578125	0.998779296875	0.07633587786259542	0.07633587786259542	1.0687022900763359	192.6	252.6	40.199999999999996
2017-08-15 12:15:33.817195	o	s	0.008056640625	0.018310546875	1.004638671875	-0.07633587786259542	-0.07633587786259542	0.8091603053435115	192.6	252.6	40.199999999999996
2017-08-15 12:15:33.838474	o	s	0.005859375	0.0185546875	0.968994140625	-0.10687022900763359	-0.10687022900763359	1.083969465648855	192.6	252.6	40.199999999999996
2017-08-15 12:15:33.858523	o	s	0.002685546875	0.019287109375	1.0029296875	0.015267175572519083	0.015267175572519083	1.099236641221374	192.6	252.6	40.199999999999996
2017-08-15 12:15:33.880482	o	s	0.002197265625	0.017822265625	1.00244140625	-0.13740458015267176	-0.13740458015267176	1.0534351145038168	192.6	252.6	40.199999999999996
2017-08-15 12:15:33.902351	o	s	0.00390625	0.0205078125	1.000244140625	0.13740458015267176	0.13740458015267176	0.9465648854961832	192.6	252.6	40.199999999999996
2017-08-15 12:15:33.922931	o	s	0.006591796875	0.020263671875	1.008056640625	0.07633587786259542	0.07633587786259542	1.099236641221374	192.6	252.6	40.199999999999996
2017-08-15 12:15:33.945013	o	s	0.001953125	0.018798828125	0.99853515625	0.1984732824427481	0.1984732824427481	1.099236641221374	192.6	252.6	40.199999999999996
2017-08-15 12:15:33.969055	o	s	0.005126953125	0.021484375	1.000732421875	0.015267175572519083	0.015267175572519083	1.0687022900763359	192.6	252.6	40.199999999999996
2017-08-15 12:15:33.989979	o	s	0.002197265625	0.01953125	0.969970703125	0.10687022900763359	0.10687022900763359	1.2061068702290076	192.6	252.6	40.199999999999996
2017-08-15 12:15:34.011922	o	s	0.00244140625	0.020263671875	0.996826171875	0.030534351145038167	0.030534351145038167	1.1603053435114503	192.6	252.6	40.199999999999996
2017-08-15 12:15:34.034380	o	s	0.003173828125	0.020263671875	0.999755859375	0.22900763358778625	0.22900763358778625	0.8549618320610687	192.6	252.6	40.199999999999996
2017-08-15 12:15:34.060414	o	s	0.00146484375	0.017822265625	1.005615234375	0.04580152671755725	0.04580152671755725	1.2213740458015268	192.6	252.6	40.199999999999996
2017-08-15 12:15:34.089963	o	s	0.004150390625	0.019287109375	1.007080078125	0.030534351145038167	0.030534351145038167	1.1145038167938932	192.6	252.6	40.199999999999996
2017-08-15 12:15:34.113019	o	s	0.004638671875	0.019287109375	1.004150390625	0.0	0.0	1.083969465648855	192.6	252.6	40.199999999999996
2017-08-15 12:15:34.136044	o	s	0.002197265625	0.01904296875	1.00341796875	0.04580152671755725	0.04580152671755725	1.083969465648855	192.6	252.6	40.199999999999996
2017-08-15 12:15:34.159834	o	s	0.005615234375	0.025634765625	1.0	3.8625954198473282	3.8625954198473282	0.9923664122137404	192.6	252.6	40.199999999999996
2017-08-15 12:15:34.177147	o	s	0.0087890625	0.022216796875	1.00634765625	0.030534351145038167	0.030534351145038167	0.9618320610687023	192.6	252.6	40.199999999999996
2017-08-15 12:15:34.197758	o	s	0.00732421875	0.0185546875	0.9990234375	-0.015267175572519083	-0.015267175572519083	0.9923664122137404	192.6	252.6	40.199999999999996
2017-08-15 12:15:34.215169	o	s	0.005126953125	0.016845703125	1.000244140625	-0.12213740458015267	-0.12213740458015267	1.0687022900763359	192.6	252.6	40.199999999999996
2017-08-15 12:15:34.235508	o	s	-0.000732421875	0.0185546875	1.00341796875	0.07633587786259542	0.07633587786259542	1.0381679389312977	192.6	252.6	40.199999999999996
2017-08-15 12:15:34.252240	o	s	0.005615234375	0.022705078125	1.002685546875	0.21374045801526717	0.21374045801526717	0.916030534351145	192.6	252.6	40.199999999999996
2017-08-15 12:15:34.276354	o	s	0.00390625	0.0234375	1.002197265625	0.13740458015267176	0.13740458015267176	0.9770992366412213	192.6	252.6	40.199999999999996
2017-08-15 12:15:34.294128	o	s	0.004638671875	0.022705078125	0.997802734375	-0.15267175572519084	-0.15267175572519084	0.9312977099236641	192.6	252.6	40.199999999999996
2017-08-15 12:15:34.310752	o	s	0.00732421875	0.023681640625	1.00341796875	-0.16793893129770993	-0.16793893129770993	1.282442748091603	192.6	252.6	40.199999999999996
2017-08-15 12:15:34.327879	o	s	0.002197265625	0.021484375	1.0302734375	0.04580152671755725	0.04580152671755725	1.2061068702290076	192.6	252.6	40.199999999999996
2017-08-15 12:15:34.346468	o	s	0.005615234375	0.017578125	1.002685546875	0.24427480916030533	0.24427480916030533	1.0381679389312977	192.6	252.6	40.199999999999996
2017-08-15 12:15:34.362752	o	s	0.002685546875	0.01611328125	0.99609375	-0.061068702290076333	-0.061068702290076333	1.083969465648855	192.6	252.6	40.199999999999996
2017-08-15 12:15:34.379246	o	s	0.0078125	0.020751953125	1.0078125	0.061068702290076333	0.061068702290076333	1.0534351145038168	192.6	252.6	40.199999999999996
2017-08-15 12:15:34.395716	o	s	0.00390625	0.020263671875	1.0048828125	-0.07633587786259542	-0.07633587786259542	1.083969465648855	192.6	252.6	40.199999999999996
2017-08-15 12:15:34.413563	o	s	0.0048828125	0.018310546875	1.004638671875	-0.21374045801526717	-0.21374045801526717	0.8244274809160306	192.6	252.6	40.199999999999996
2017-08-15 12:15:34.430486	o	s	0.004638671875	0.015625	1.002197265625	0.030534351145038167	0.030534351145038167	0.9465648854961832	192.6	252.6	40.199999999999996
2017-08-15 12:15:34.449565	o	s	0.006591796875	0.02001953125	1.009765625	0.030534351145038167	0.030534351145038167	1.0381679389312977	192.6	252.6	40.199999999999996
2017-08-15 12:15:34.466630	o	s	0.005859375	0.019775390625	1.002197265625	0.13740458015267176	0.13740458015267176	1.083969465648855	192.6	252.6	40.199999999999996
2017-08-15 12:15:34.484298	o	s	0.00390625	0.0205078125	1.0029296875	-0.10687022900763359	-0.10687022900763359	1.1908396946564885	192.6	252.6	40.199999999999996
2017-08-15 12:15:34.501382	o	s	0.008056640625	0.0234375	0.9970703125	0.061068702290076333	0.061068702290076333	1.1297709923664123	192.6	252.6	40.199999999999996
2017-08-15 12:15:34.520183	o	s	0.00537109375	0.022705078125	1.0068359375	-0.04580152671755725	-0.04580152671755725	0.9312977099236641	192.6	252.6	40.199999999999996
2017-08-15 12:15:34.537295	o	s	-0.001220703125	0.0205078125	1.00732421875	-0.07633587786259542	-0.07633587786259542	1.1908396946564885	192.6	252.6	40.199999999999996
2017-08-15 12:15:34.556352	o	s	0.007568359375	0.017578125	1.00537109375	-0.15267175572519084	-0.15267175572519084	1.0229007633587786	192.6	252.6	40.199999999999996
2017-08-15 12:15:34.573364	o	s	0.003662109375	0.01513671875	1.00537109375	-0.12213740458015267	-0.12213740458015267	1.083969465648855	192.6	252.6	40.199999999999996
2017-08-15 12:15:34.591493	o	s	0.00927734375	0.0205078125	1.000244140625	0.10687022900763359	0.10687022900763359	0.9007633587786259	192.6	252.6	40.199999999999996
2017-08-15 12:15:34.608623	o	s	0.002685546875	0.017578125	1.00244140625	-0.10687022900763359	-0.10687022900763359	0.9465648854961832	192.6	252.6	40.199999999999996
2017-08-15 12:15:34.626189	o	s	0.0078125	0.01806640625	1.006103515625	0.366412213740458	0.366412213740458	1.251908396946565	192.6	252.6	40.199999999999996
2017-08-15 12:15:34.643302	o	s	0.009765625	0.018798828125	1.00244140625	0.1984732824427481	0.1984732824427481	1.0229007633587786	192.6	252.6	40.199999999999996
2017-08-15 12:15:34.660840	o	s	0.006591796875	0.0185546875	0.998291015625	-0.030534351145038167	-0.030534351145038167	1.0534351145038168	192.6	252.6	40.199999999999996
2017-08-15 12:15:34.678074	o	s	0.001220703125	0.02294921875	1.00146484375	0.07633587786259542	0.07633587786259542	0.8396946564885496	192.6	252.6	40.199999999999996
2017-08-15 12:15:34.695158	o	s	0.007080078125	0.01611328125	1.004638671875	0.07633587786259542	0.07633587786259542	1.1450381679389312	192.6	252.6	40.199999999999996
2017-08-15 12:15:34.712269	o	s	0.005126953125	0.022216796875	0.999267578125	0.13740458015267176	0.13740458015267176	0.9618320610687023	192.6	252.6	40.199999999999996
2017-08-15 12:15:34.729296	o	s	0.007080078125	0.01953125	1.003173828125	0.13740458015267176	0.13740458015267176	0.9007633587786259	192.6	252.6	40.199999999999996
2017-08-15 12:15:34.746459	o	s	0.006103515625	0.0224609375	1.029541015625	-0.030534351145038167	-0.030534351145038167	0.9923664122137404	192.6	252.6	40.199999999999996
2017-08-15 12:15:34.763733	o	s	0.001220703125	0.015625	0.996337890625	-0.061068702290076333	-0.061068702290076333	1.0381679389312977	192.6	252.6	40.199999999999996
2017-08-15 12:15:34.780952	o	s	0.004638671875	0.02099609375	1.00048828125	0.030534351145038167	0.030534351145038167	0.9312977099236641	192.6	252.6	40.199999999999996
2017-08-15 12:15:34.798261	o	s	0.004150390625	0.0234375	0.998291015625	-0.07633587786259542	-0.07633587786259542	1.1603053435114503	192.6	252.6	40.199999999999996
2017-08-15 12:15:34.815522	o	s	0.005859375	0.02001953125	0.996337890625	0.04580152671755725	0.04580152671755725	1.0534351145038168	192.6	252.6	40.199999999999996
2017-08-15 12:15:34.833649	o	s	0.008544921875	0.02099609375	1.00537109375	-0.015267175572519083	-0.015267175572519083	1.099236641221374	192.6	252.6	40.199999999999996
2017-08-15 12:15:34.850733	o	s	0.006591796875	0.016845703125	1.0	0.07633587786259542	0.07633587786259542	1.0534351145038168	192.6	252.6	40.199999999999996
2017-08-15 12:15:34.872806	o	s	0.00439453125	0.0224609375	1.004150390625	0.13740458015267176	0.13740458015267176	0.7938931297709924	192.6	252.6	40.199999999999996
2017-08-15 12:15:34.898307	o	s	0.007080078125	0.021484375	1.0	0.030534351145038167	0.030534351145038167	1.083969465648855	192.6	252.6	40.199999999999996
2017-08-15 12:15:34.921621	o	s	0.001708984375	0.021484375	1.006591796875	0.15267175572519084	0.15267175572519084	1.1145038167938932	192.6	252.6	40.199999999999996
2017-08-15 12:15:34.943839	o	s	0.00341796875	0.019775390625	1.005615234375	0.0916030534351145	0.0916030534351145	0.9923664122137404	192.6	252.6	40.199999999999996
2017-08-15 12:15:34.964348	o	s	0.00732421875	0.018310546875	1.001708984375	-0.061068702290076333	-0.061068702290076333	1.0534351145038168	192.6	252.6	40.199999999999996
2017-08-15 12:15:34.985047	o	s	0.00341796875	0.01708984375	1.0029296875	-3.8931297709923665	-3.8931297709923665	1.2671755725190839	192.6	252.6	40.199999999999996
2017-08-15 12:15:35.015075	o	s	0.0048828125	0.01806640625	1.006103515625	0.10687022900763359	0.10687022900763359	1.083969465648855	192.6	252.6	40.199999999999996
2017-08-15 12:15:35.035338	o	s	0.004638671875	0.019775390625	0.97314453125	0.030534351145038167	0.030534351145038167	1.1603053435114503	192.6	252.6	40.199999999999996
2017-08-15 12:15:35.059574	o	s	0.002685546875	0.0234375	1.01025390625	0.07633587786259542	0.07633587786259542	1.1603053435114503	192.6	252.6	40.199999999999996
2017-08-15 12:15:35.080011	o	s	0.003173828125	0.019287109375	0.993896484375	0.061068702290076333	0.061068702290076333	1.0229007633587786	192.6	252.6	40.199999999999996
2017-08-15 12:15:35.105696	o	s	0.001953125	0.0205078125	1.003662109375	-0.07633587786259542	-0.07633587786259542	1.3282442748091603	192.6	252.6	40.199999999999996
2017-08-15 12:15:35.128206	o	s	0.006103515625	0.022705078125	1.0009765625	0.10687022900763359	0.10687022900763359	1.1450381679389312	192.6	252.6	40.199999999999996
2017-08-15 12:15:35.150965	o	s	0.0048828125	0.021728515625	0.997314453125	0.0	0.0	1.0076335877862594	192.6	252.6	40.199999999999996
2017-08-15 12:15:35.179974	o	s	0.00341796875	0.01708984375	1.002197265625	0.07633587786259542	0.07633587786259542	0.9465648854961832	192.6	252.6	40.199999999999996
2017-08-15 12:15:35.209462	o	s	0.007080078125	0.01904296875	1.0048828125	0.10687022900763359	0.10687022900763359	1.0534351145038168	192.6	252.6	40.199999999999996
2017-08-15 12:15:35.236539	o	s	0.001708984375	0.017822265625	1.030029296875	3.877862595419847	3.877862595419847	1.2061068702290076	192.6	252.6	40.199999999999996
2017-08-15 12:15:35.262886	o	s	0.00537109375	0.019775390625	1.005615234375	0.1984732824427481	0.1984732824427481	1.0534351145038168	192.6	252.6	40.199999999999996
2017-08-15 12:15:35.284121	o	s	0.004638671875	0.022216796875	0.99951171875	-0.0916030534351145	-0.0916030534351145	1.297709923664122	192.6	252.6	40.199999999999996
2017-08-15 12:15:35.312569	o	s	0.005615234375	0.016845703125	1.0	0.15267175572519084	0.15267175572519084	1.1603053435114503	192.6	252.6	40.199999999999996
2017-08-15 12:15:35.330365	o	s	-0.123046875	-0.153564453125	0.97119140625	-3.618320610687023	-3.618320610687023	54.6412213740458	192.6	252.6	40.199999999999996
2017-08-15 12:15:35.346580	o	s	0.10546875	0.253173828125	1.00537109375	0.3053435114503817	0.3053435114503817	22.458015267175572	192.6	252.6	40.199999999999996
2017-08-15 12:15:35.363945	o	s	0.0087890625	0.0029296875	1.005859375	-0.21374045801526717	-0.21374045801526717	9.725190839694656	192.6	252.6	40.199999999999996
2017-08-15 12:15:35.380055	o	s	-0.001220703125	0.021728515625	1.005126953125	-0.33587786259541985	-0.33587786259541985	11.389312977099237	192.6	252.6	40.199999999999996
2017-08-15 12:15:35.399337	o	s	0.002197265625	0.0322265625	1.004638671875	-0.061068702290076333	-0.061068702290076333	6.748091603053435	192.6	252.6	40.199999999999996
2017-08-15 12:15:35.415863	o	s	0.01513671875	0.021240234375	1.0146484375	-0.24427480916030533	-0.24427480916030533	3.480916030534351	192.6	252.6	40.199999999999996
2017-08-15 12:15:35.432964	o	s	0.01318359375	0.01416015625	1.029541015625	0.8396946564885496	0.8396946564885496	0.8244274809160306	192.6	252.6	40.199999999999996
2017-08-15 12:15:35.449142	o	s	0.01220703125	-0.028564453125	1.0498046875	2.7786259541984735	2.7786259541984735	-3.8931297709923665	192.6	252.6	40.199999999999996
2017-08-15 12:15:35.468180	o	s	0.02490234375	-0.029541015625	1.047607421875	5.816793893129771	5.816793893129771	0.5038167938931297	192.6	252.6	40.199999999999996
2017-08-15 12:15:35.484280	o	s	-0.022216796875	0.017578125	1.00732421875	-3.312977099236641	-3.312977099236641	-1.4351145038167938	192.6	252.6	40.199999999999996
2017-08-15 12:15:35.501516	o	s	-0.001953125	-0.00732421875	1.046875	-0.2748091603053435	-0.2748091603053435	1.0381679389312977	192.6	252.6	40.199999999999996
2017-08-15 12:15:35.518390	o	s	-0.01708984375	-0.038818359375	1.001708984375	-8.687022900763358	-8.687022900763358	1.5572519083969465	192.6	252.6	40.199999999999996
2017-08-15 12:15:35.535618	o	s	-0.00732421875	-0.055419921875	0.996337890625	-14.687022900763358	-14.687022900763358	0.9312977099236641	192.6	252.6	40.199999999999996
2017-08-15 12:15:35.551624	o	s	-0.006591796875	-0.0478515625	1.01318359375	-17.46564885496183	-17.46564885496183	2.2900763358778624	192.6	252.6	40.199999999999996
2017-08-15 12:15:35.570997	o	s	0.013671875	-0.103271484375	1.058349609375	-20.80916030534351	-20.80916030534351	6.305343511450381	192.6	252.6	40.199999999999996
2017-08-15 12:15:35.587163	o	s	0.04736328125	-0.138427734375	1.0224609375	-20.595419847328245	-20.595419847328245	3.2977099236641223	192.6	252.6	40.199999999999996
2017-08-15 12:15:35.604610	o	s	0.031982421875	-0.128662109375	0.99951171875	-17.46564885496183	-17.46564885496183	-0.916030534351145	192.6	252.6	40.199999999999996
2017-08-15 12:15:35.620713	o	s	0.0205078125	-0.128173828125	0.9970703125	-12.442748091603054	-12.442748091603054	-0.7938931297709924	192.6	252.6	40.199999999999996
2017-08-15 12:15:35.637907	o	s	0.03076171875	-0.132568359375	1.026611328125	-12.396946564885496	-12.396946564885496	1.1297709923664123	192.6	252.6	40.199999999999996
2017-08-15 12:15:35.653946	o	s	0.05322265625	-0.18603515625	1.0146484375	-18.244274809160306	-18.244274809160306	-1.9236641221374047	192.6	252.6	40.199999999999996
2017-08-15 12:15:35.673620	o	s	0.04638671875	-0.177490234375	0.9775390625	-21.61832061068702	-21.61832061068702	-2.6259541984732824	192.6	252.6	40.199999999999996
2017-08-15 12:15:35.689853	o	s	0.039306640625	-0.2294921875	0.95068359375	-18.732824427480917	-18.732824427480917	3.8931297709923665	192.6	252.6	40.199999999999996
2017-08-15 12:15:35.706078	o	s	0.069580078125	-0.237060546875	0.981201171875	-16.15267175572519	-16.15267175572519	5.1603053435114505	192.6	252.6	40.199999999999996
2017-08-15 12:15:35.723323	o	s	0.0810546875	-0.24365234375	0.998291015625	-21.419847328244273	-21.419847328244273	1.2366412213740459	192.6	252.6	40.199999999999996
2017-08-15 12:15:35.739546	o	s	0.068359375	-0.260498046875	0.989990234375	-24.595419847328245	-24.595419847328245	-4.091603053435114	192.6	252.6	40.199999999999996
2017-08-15 12:15:35.756599	o	s	0.0693359375	-0.255859375	0.927734375	-24.717557251908396	-24.717557251908396	-6.8396946564885495	192.6	252.6	40.199999999999996
2017-08-15 12:15:35.772907	o	s	0.068603515625	-0.235107421875	0.912353515625	-20.65648854961832	-20.65648854961832	-5.343511450381679	192.6	252.6	40.199999999999996
2017-08-15 12:15:35.789872	o	s	0.076904296875	-0.30322265625	0.9228515625	-21.053435114503817	-21.053435114503817	-4.3816793893129775	192.6	252.6	40.199999999999996
2017-08-15 12:15:35.806542	o	s	0.09521484375	-0.33154296875	0.929443359375	-20.045801526717558	-20.045801526717558	0.8854961832061069	192.6	252.6	40.199999999999996
2017-08-15 12:15:35.823506	o	s	0.097900390625	-0.330322265625	0.920166015625	-12.900763358778626	-12.900763358778626	1.4351145038167938	192.6	252.6	40.199999999999996
2017-08-15 12:15:35.839806	o	s	0.133544921875	-0.380126953125	0.88134765625	-17.450381679389313	-17.450381679389313	-4.427480916030534	192.6	252.6	40.199999999999996
2017-08-15 12:15:35.857563	o	s	0.12548828125	-0.441650390625	0.905029296875	-18.244274809160306	-18.244274809160306	-10.15267175572519	192.6	252.6	40.199999999999996
2017-08-15 12:15:35.874082	o	s	0.114990234375	-0.420654296875	0.9228515625	-18.015267175572518	-18.015267175572518	-8.931297709923664	192.6	252.6	40.199999999999996
2017-08-15 12:15:35.891040	o	s	0.056396484375	-0.37548828125	0.921142578125	-21.46564885496183	-21.46564885496183	-2.1526717557251906	192.6	252.6	40.199999999999996
2017-08-15 12:15:35.907768	o	s	0.13037109375	-0.42333984375	0.900146484375	-20.671755725190838	-20.671755725190838	-0.42748091603053434	192.6	252.6	40.199999999999996
2017-08-15 12:15:35.924957	o	s	0.116455078125	-0.47119140625	0.856201171875	-17.81679389312977	-17.81679389312977	1.3587786259541985	192.6	252.6	40.199999999999996
2017-08-15 12:15:35.941293	o	s	0.1318359375	-0.51025390625	0.884521484375	-14.83969465648855	-14.83969465648855	7.00763358778626	192.6	252.6	40.199999999999996
2017-08-15 12:15:35.958289	o	s	0.1474609375	-0.495361328125	0.863525390625	-11.297709923664122	-11.297709923664122	7.145038167938932	192.6	252.6	40.199999999999996
2017-08-15 12:15:35.976191	o	s	0.159912109375	-0.52978515625	0.820556640625	-10.458015267175572	-10.458015267175572	0.6870229007633588	192.6	252.6	40.199999999999996
2017-08-15 12:15:35.998285	o	s	0.15478515625	-0.56787109375	0.8203125	-12.320610687022901	-12.320610687022901	-3.053435114503817	192.6	252.6	40.199999999999996
2017-08-15 12:15:36.022053	o	s	0.135009765625	-0.570068359375	0.815185546875	-14.900763358778626	-14.900763358778626	2.183206106870229	192.6	252.6	40.199999999999996
2017-08-15 12:15:36.044380	o	s	0.173095703125	-0.591796875	0.7841796875	-11.206106870229007	-11.206106870229007	0.5038167938931297	192.6	252.6	40.199999999999996
2017-08-15 12:15:36.067024	o	s	0.146484375	-0.6279296875	0.770263671875	-6.015267175572519	-6.015267175572519	4.183206106870229	192.6	252.6	40.199999999999996
2017-08-15 12:15:36.085543	o	s	0.163818359375	-0.61962890625	0.7861328125	-3.3587786259541983	-3.3587786259541983	4.717557251908397	192.6	252.6	40.199999999999996
2017-08-15 12:15:36.102904	o	s	0.165283203125	-0.607666015625	0.77490234375	-5.6183206106870225	-5.6183206106870225	3.0839694656488548	192.6	252.6	40.199999999999996
2017-08-15 12:15:36.119579	o	s	0.1748046875	-0.5947265625	0.74609375	-2.5343511450381677	-2.5343511450381677	1.7557251908396947	192.6	252.6	40.199999999999996
2017-08-15 12:15:36.136867	o	s	0.15869140625	-0.6376953125	0.739990234375	-6.641221374045801	-6.641221374045801	1.465648854961832	192.6	252.6	40.199999999999996
2017-08-15 12:15:36.153091	o	s	0.175537109375	-0.664306640625	0.71044921875	-6.519083969465649	-6.519083969465649	-3.816793893129771	192.6	252.6	40.199999999999996
2017-08-15 12:15:36.174076	o	s	0.15234375	-0.700439453125	0.68994140625	-6.8396946564885495	-6.8396946564885495	1.1297709923664123	192.6	252.6	40.199999999999996
2017-08-15 12:15:36.190185	o	s	0.160888671875	-0.69482421875	0.68310546875	-3.4656488549618323	-3.4656488549618323	-1.0381679389312977	192.6	252.6	40.199999999999996
2017-08-15 12:15:36.208930	o	s	0.17578125	-0.714599609375	0.6884765625	-2.427480916030534	-2.427480916030534	-1.786259541984733	192.6	252.6	40.199999999999996
2017-08-15 12:15:36.225373	o	s	0.175537109375	-0.7333984375	0.677978515625	-4.885496183206107	-4.885496183206107	-3.9389312977099236	192.6	252.6	40.199999999999996
2017-08-15 12:15:36.244127	o	s	0.171875	-0.713623046875	0.647705078125	-7.541984732824427	-7.541984732824427	-1.8778625954198473	192.6	252.6	40.199999999999996
2017-08-15 12:15:36.260109	o	s	0.162353515625	-0.69970703125	0.615966796875	-8.213740458015268	-8.213740458015268	-3.5572519083969465	192.6	252.6	40.199999999999996
2017-08-15 12:15:36.277677	o	s	0.173583984375	-0.68115234375	0.6025390625	-6.778625954198473	-6.778625954198473	-4.122137404580153	192.6	252.6	40.199999999999996
2017-08-15 12:15:36.293722	o	s	0.165771484375	-0.706787109375	0.584716796875	-9.068702290076336	-9.068702290076336	-4.061068702290076	192.6	252.6	40.199999999999996
2017-08-15 12:15:36.312035	o	s	0.16015625	-0.69873046875	0.593505859375	-12.82442748091603	-12.82442748091603	-2.8396946564885495	192.6	252.6	40.199999999999996
2017-08-15 12:15:36.329292	o	s	0.185791015625	-0.729248046875	0.5810546875	-12.396946564885496	-12.396946564885496	-0.9312977099236641	192.6	252.6	40.199999999999996
2017-08-15 12:15:36.345565	o	s	0.177001953125	-0.7529296875	0.551513671875	-6.824427480916031	-6.824427480916031	2.3206106870229006	192.6	252.6	40.199999999999996
2017-08-15 12:15:36.363321	o	s	0.177490234375	-0.760498046875	0.52294921875	-5.251908396946565	-5.251908396946565	1.6946564885496183	192.6	252.6	40.199999999999996
2017-08-15 12:15:36.379449	o	s	0.184326171875	-0.838623046875	0.52099609375	9.114503816793894	9.114503816793894	3.7709923664122136	192.6	252.6	40.199999999999996
2017-08-15 12:15:36.400628	o	s	0.213623046875	-0.83203125	0.556640625	13.358778625954198	13.358778625954198	1.1145038167938932	192.6	252.6	40.199999999999996
2017-08-15 12:15:36.416580	o	s	0.177490234375	-0.819091796875	0.508056640625	8.748091603053435	8.748091603053435	-3.0381679389312977	192.6	252.6	40.199999999999996
2017-08-15 12:15:36.434227	o	s	0.184326171875	-0.837646484375	0.5166015625	5.221374045801527	5.221374045801527	-3.450381679389313	192.6	252.6	40.199999999999996
2017-08-15 12:15:36.450151	o	s	0.1845703125	-0.837646484375	0.51025390625	6.33587786259542	6.33587786259542	-5.32824427480916	192.6	252.6	40.199999999999996
2017-08-15 12:15:36.467757	o	s	0.15771484375	-0.833251953125	0.47802734375	0.9312977099236641	0.9312977099236641	-6.351145038167939	192.6	252.6	40.199999999999996
2017-08-15 12:15:36.483866	o	s	0.1923828125	-0.826171875	0.451171875	-2.564885496183206	-2.564885496183206	-4.977099236641221	192.6	252.6	40.199999999999996
2017-08-15 12:15:36.501483	o	s	0.191650390625	-0.84716796875	0.454345703125	-1.0076335877862594	-1.0076335877862594	-3.267175572519084	192.6	252.6	40.199999999999996
2017-08-15 12:15:36.517588	o	s	0.1982421875	-0.837158203125	0.4541015625	-4.0458015267175576	-4.0458015267175576	-0.5801526717557252	192.6	252.6	40.199999999999996
2017-08-15 12:15:36.535229	o	s	0.1796875	-0.84521484375	0.436767578125	-7.816793893129771	-7.816793893129771	5.694656488549619	192.6	252.6	40.199999999999996
2017-08-15 12:15:36.551177	o	s	0.19189453125	-0.837158203125	0.423095703125	-4.442748091603053	-4.442748091603053	10.687022900763358	192.6	252.6	40.199999999999996
2017-08-15 12:15:36.568831	o	s	0.26171875	-0.932373046875	0.465576171875	-8.213740458015268	-8.213740458015268	4.061068702290076	192.6	252.6	40.199999999999996
2017-08-15 12:15:36.585121	o	s	0.16748046875	-0.885498046875	0.4111328125	1.4045801526717556	1.4045801526717556	5.236641221374046	192.6	252.6	40.199999999999996
2017-08-15 12:15:36.602551	o	s	0.18505859375	-0.925048828125	0.41552734375	-0.8549618320610687	-0.8549618320610687	5.4961832061068705	192.6	252.6	40.199999999999996
2017-08-15 12:15:36.618775	o	s	0.1923828125	-0.907958984375	0.3837890625	4.748091603053435	4.748091603053435	4.290076335877862	192.6	252.6	40.199999999999996
2017-08-15 12:15:36.641453	o	s	0.182373046875	-0.908203125	0.362548828125	8.702290076335878	8.702290076335878	2.7480916030534353	192.6	252.6	40.199999999999996
2017-08-15 12:15:36.657661	o	s	0.175537109375	-0.906005859375	0.33984375	10.748091603053435	10.748091603053435	1.633587786259542	192.6	252.6	40.199999999999996
2017-08-15 12:15:36.674629	o	s	0.17529296875	-0.861083984375	0.370849609375	0.9312977099236641	0.9312977099236641	-0.030534351145038167	192.6	252.6	40.199999999999996
2017-08-15 12:15:36.691747	o	s	0.1787109375	-0.904541015625	0.341796875	-6.99236641221374	-6.99236641221374	0.9312977099236641	192.6	252.6	40.199999999999996
2017-08-15 12:15:36.708546	o	s	0.185791015625	-0.904052734375	0.29541015625	-2.381679389312977	-2.381679389312977	0.9465648854961832	192.6	252.6	40.199999999999996
2017-08-15 12:15:36.724482	o	s	0.179443359375	-0.911865234375	0.312255859375	0.7022900763358778	0.7022900763358778	-0.0916030534351145	192.6	252.6	40.199999999999996
2017-08-15 12:15:36.747403	o	s	0.190185546875	-0.9248046875	0.274169921875	-2.6106870229007635	-2.6106870229007635	-1.5267175572519085	192.6	252.6	40.199999999999996
2017-08-15 12:15:36.766145	o	s	0.187744140625	-0.950439453125	0.285400390625	-6.061068702290076	-6.061068702290076	2.564885496183206	192.6	252.6	40.199999999999996
2017-08-15 12:15:36.782135	o	s	0.17138671875	-0.937744140625	0.291259765625	-1.7557251908396947	-1.7557251908396947	8.122137404580153	192.6	252.6	40.199999999999996
2017-08-15 12:15:36.803394	o	s	0.175048828125	-0.958740234375	0.290283203125	0.21374045801526717	0.21374045801526717	13.419847328244275	192.6	252.6	40.199999999999996
2017-08-15 12:15:36.825113	o	s	0.1748046875	-0.940185546875	0.260986328125	0.9465648854961832	0.9465648854961832	12.412213740458014	192.6	252.6	40.199999999999996
2017-08-15 12:15:36.845979	o	s	0.1630859375	-0.929443359375	0.261474609375	5.770992366412214	5.770992366412214	13.083969465648854	192.6	252.6	40.199999999999996
2017-08-15 12:15:36.867154	o	s	0.129150390625	-0.916748046875	0.288330078125	3.8931297709923665	3.8931297709923665	15.877862595419847	192.6	252.6	40.199999999999996
2017-08-15 12:15:36.888499	o	s	0.136474609375	-0.8623046875	0.257568359375	1.0076335877862594	1.0076335877862594	5.251908396946565	192.6	252.6	40.199999999999996
2017-08-15 12:15:36.910080	o	s	0.164306640625	-0.974853515625	0.212158203125	9.755725190839694	9.755725190839694	-9.419847328244275	192.6	252.6	40.199999999999996
2017-08-15 12:15:36.932165	o	s	0.170166015625	-0.967041015625	0.16748046875	8.442748091603054	8.442748091603054	1.0687022900763359	192.6	252.6	40.199999999999996
2017-08-15 12:15:36.952894	o	s	0.1005859375	-0.8857421875	0.2080078125	5.557251908396947	5.557251908396947	-7.969465648854962	192.6	252.6	40.199999999999996
2017-08-15 12:15:36.975765	o	s	0.166259765625	-0.975830078125	0.136962890625	5.862595419847328	5.862595419847328	-4.549618320610687	192.6	252.6	40.199999999999996
2017-08-15 12:15:36.992252	o	s	0.19921875	-0.9658203125	0.115478515625	4.2748091603053435	4.2748091603053435	3.053435114503817	192.6	252.6	40.199999999999996
2017-08-15 12:15:37.009796	o	s	0.154296875	-0.944091796875	0.096435546875	2.4732824427480917	2.4732824427480917	10.076335877862595	192.6	252.6	40.199999999999996
2017-08-15 12:15:37.027986	o	s	0.13818359375	-0.9150390625	0.137939453125	0.7633587786259542	0.7633587786259542	1.7099236641221374	192.6	252.6	40.199999999999996
2017-08-15 12:15:37.044337	o	s	0.177978515625	-0.967529296875	0.065673828125	5.770992366412214	5.770992366412214	0.7938931297709924	192.6	252.6	40.199999999999996
2017-08-15 12:15:37.061079	o	s	0.17578125	-1.017333984375	0.03955078125	1.984732824427481	1.984732824427481	-1.297709923664122	192.6	252.6	40.199999999999996
2017-08-15 12:15:37.079338	o	s	0.248046875	-0.963623046875	0.002197265625	-0.3053435114503817	-0.3053435114503817	0.13740458015267176	192.6	252.6	40.199999999999996
2017-08-15 12:15:37.095771	o	s	0.189453125	-1.00732421875	-0.0107421875	-5.9541984732824424	-5.9541984732824424	-0.8396946564885496	192.6	252.6	40.199999999999996
2017-08-15 12:15:37.113429	o	s	0.173828125	-0.98779296875	0.033203125	-4.793893129770993	-4.793893129770993	8.076335877862595	192.6	252.6	40.199999999999996
2017-08-15 12:15:37.130532	o	s	0.152099609375	-0.969970703125	0.023681640625	-2.5801526717557253	-2.5801526717557253	13.419847328244275	192.6	252.6	40.199999999999996
2017-08-15 12:15:37.151131	o	s	0.125244140625	-0.9755859375	-0.005126953125	-1.984732824427481	-1.984732824427481	7.236641221374046	192.6	252.6	40.199999999999996
2017-08-15 12:15:37.171067	o	s	0.132080078125	-0.997314453125	-0.0185546875	-1.2366412213740459	-1.2366412213740459	-5.1603053435114505	192.6	252.6	40.199999999999996
2017-08-15 12:15:37.190055	o	s	0.224609375	-0.885009765625	-0.042236328125	-0.4580152671755725	-0.4580152671755725	-10.687022900763358	192.6	252.6	40.199999999999996
2017-08-15 12:15:37.210067	o	s	0.171630859375	-1.015625	-0.11865234375	-3.5877862595419847	-3.5877862595419847	-11.908396946564885	192.6	252.6	40.199999999999996
2017-08-15 12:15:37.228076	o	s	0.15771484375	-1.00146484375	-0.1201171875	-7.557251908396947	-7.557251908396947	-10.748091603053435	192.6	252.6	40.199999999999996
2017-08-15 12:15:37.249483	o	s	0.16845703125	-0.987060546875	-0.1015625	-7.969465648854962	-7.969465648854962	-14.778625954198473	192.6	252.6	40.199999999999996
2017-08-15 12:15:37.266470	o	s	0.125	-1.01123046875	-0.086181640625	-6.809160305343512	-6.809160305343512	-13.618320610687023	192.6	252.6	40.199999999999996
2017-08-15 12:15:37.286745	o	s	0.198974609375	-0.91259765625	-0.11474609375	-4.519083969465649	-4.519083969465649	-12.229007633587786	192.6	252.6	40.199999999999996
2017-08-15 12:15:37.303992	o	s	0.1884765625	-1.00634765625	-0.22705078125	-6.33587786259542	-6.33587786259542	-15.435114503816793	192.6	252.6	40.199999999999996
2017-08-15 12:15:37.328288	o	s	0.1962890625	-0.98974609375	-0.19775390625	-6.3816793893129775	-6.3816793893129775	-11.694656488549619	192.6	252.6	40.199999999999996
2017-08-15 12:15:37.344461	o	s	0.210693359375	-0.956787109375	-0.198974609375	-6.366412213740458	-6.366412213740458	-6.488549618320611	192.6	252.6	40.199999999999996
2017-08-15 12:15:37.361032	o	s	0.196533203125	-0.968017578125	-0.18115234375	-5.709923664122138	-5.709923664122138	-2.3206106870229006	192.6	252.6	40.199999999999996
2017-08-15 12:15:37.377126	o	s	0.215576171875	-0.9482421875	-0.18896484375	-1.5572519083969465	-1.5572519083969465	4.061068702290076	192.6	252.6	40.199999999999996
2017-08-15 12:15:37.393794	o	s	0.21240234375	-0.859130859375	-0.159423828125	-3.8931297709923665	-3.8931297709923665	-6.259541984732825	192.6	252.6	40.199999999999996
2017-08-15 12:15:37.409851	o	s	0.18017578125	-0.921142578125	-0.239501953125	0.3053435114503817	0.3053435114503817	-4.778625954198473	192.6	252.6	40.199999999999996
2017-08-15 12:15:37.426809	o	s	0.185302734375	-0.959228515625	-0.292724609375	-7.00763358778626	-7.00763358778626	-5.984732824427481	192.6	252.6	40.199999999999996
2017-08-15 12:15:37.442998	o	s	0.205810546875	-0.927734375	-0.29833984375	-11.557251908396946	-11.557251908396946	-5.267175572519084	192.6	252.6	40.199999999999996
2017-08-15 12:15:37.460135	o	s	0.182861328125	-0.9267578125	-0.310791015625	-11.679389312977099	-11.679389312977099	-9.877862595419847	192.6	252.6	40.199999999999996
2017-08-15 12:15:37.476407	o	s	0.203125	-0.91357421875	-0.345947265625	-11.19083969465649	-11.19083969465649	-14.961832061068701	192.6	252.6	40.199999999999996
2017-08-15 12:15:37.495842	o	s	0.2119140625	-0.896484375	-0.323486328125	-18.748091603053435	-18.748091603053435	-13.954198473282442	192.6	252.6	40.199999999999996
2017-08-15 12:15:37.513419	o	s	0.195068359375	-0.85302734375	-0.327392578125	-20.15267175572519	-20.15267175572519	-20.061068702290076	192.6	252.6	40.199999999999996
2017-08-15 12:15:37.530786	o	s	0.167724609375	-0.820068359375	-0.395263671875	-22.717557251908396	-22.717557251908396	-24.9618320610687	192.6	252.6	40.199999999999996
2017-08-15 12:15:37.546965	o	s	0.2109375	-0.8974609375	-0.416015625	-27.00763358778626	-27.00763358778626	-22.076335877862597	192.6	252.6	40.199999999999996
2017-08-15 12:15:37.563603	o	s	0.220458984375	-0.8916015625	-0.46533203125	-23.87786259541985	-23.87786259541985	-17.374045801526716	192.6	252.6	40.199999999999996
2017-08-15 12:15:37.579629	o	s	0.24755859375	-0.89794921875	-0.472412109375	-21.633587786259543	-21.633587786259543	-9.511450381679388	192.6	252.6	40.199999999999996
2017-08-15 12:15:37.597474	o	s	0.22607421875	-0.856201171875	-0.477783203125	-17.87786259541985	-17.87786259541985	-3.0229007633587788	192.6	252.6	40.199999999999996
2017-08-15 12:15:37.613501	o	s	0.2080078125	-0.860595703125	-0.447509765625	-15.358778625954198	-15.358778625954198	-5.282442748091603	192.6	252.6	40.199999999999996
2017-08-15 12:15:37.629803	o	s	0.215576171875	-0.8388671875	-0.4326171875	-11.633587786259541	-11.633587786259541	-0.015267175572519083	192.6	252.6	40.199999999999996
2017-08-15 12:15:37.645836	o	s	0.2109375	-0.825927734375	-0.470703125	-9.404580152671755	-9.404580152671755	9.404580152671755	192.6	252.6	40.199999999999996
2017-08-15 12:15:37.662047	o	s	0.200927734375	-0.83154296875	-0.46923828125	-11.251908396946565	-11.251908396946565	9.83206106870229	192.6	252.6	40.199999999999996
2017-08-15 12:15:37.678325	o	s	0.19580078125	-0.811767578125	-0.550048828125	-11.511450381679388	-11.511450381679388	9.282442748091603	192.6	252.6	40.199999999999996
2017-08-15 12:15:37.695895	o	s	0.187744140625	-0.796630859375	-0.5478515625	-8.0	-8.0	-1.1755725190839694	192.6	252.6	40.199999999999996
2017-08-15 12:15:37.717380	o	s	0.197265625	-0.79736328125	-0.58203125	-0.5038167938931297	-0.5038167938931297	-6.67175572519084	192.6	252.6	40.199999999999996
2017-08-15 12:15:37.737722	o	s	0.194580078125	-0.786865234375	-0.576416015625	-3.7709923664122136	-3.7709923664122136	-8.580152671755725	192.6	252.6	40.199999999999996
2017-08-15 12:15:37.758640	o	s	0.193603515625	-0.755615234375	-0.574951171875	-5.984732824427481	-5.984732824427481	-2.7480916030534353	192.6	252.6	40.199999999999996
2017-08-15 12:15:37.779477	o	s	0.21142578125	-0.747802734375	-0.6416015625	-3.450381679389313	-3.450381679389313	-8.778625954198473	192.6	252.6	40.199999999999996
2017-08-15 12:15:37.797906	o	s	0.197021484375	-0.7294921875	-0.6552734375	-4.2748091603053435	-4.2748091603053435	-15.86259541984733	192.6	252.6	40.199999999999996
2017-08-15 12:15:37.814505	o	s	0.21435546875	-0.738525390625	-0.638671875	-4.580152671755725	-4.580152671755725	-11.083969465648854	192.6	252.6	40.199999999999996
2017-08-15 12:15:37.830669	o	s	0.219970703125	-0.716552734375	-0.728759765625	-7.236641221374046	-7.236641221374046	-17.46564885496183	192.6	252.6	40.199999999999996
2017-08-15 12:15:37.847196	o	s	0.236328125	-0.712646484375	-0.717529296875	-3.7709923664122136	-3.7709923664122136	-16.732824427480917	192.6	252.6	40.199999999999996
2017-08-15 12:15:37.863745	o	s	0.22802734375	-0.69677734375	-0.72900390625	2.5343511450381677	2.5343511450381677	-18.15267175572519	192.6	252.6	40.199999999999996
2017-08-15 12:15:37.879889	o	s	0.2265625	-0.696044921875	-0.713623046875	3.3435114503816794	3.3435114503816794	-12.412213740458014	192.6	252.6	40.199999999999996
2017-08-15 12:15:37.896941	o	s	0.190673828125	-0.683837890625	-0.68359375	3.633587786259542	3.633587786259542	-8.290076335877863	192.6	252.6	40.199999999999996
2017-08-15 12:15:37.912993	o	s	0.2197265625	-0.64453125	-0.6884765625	-4.900763358778626	-4.900763358778626	-0.916030534351145	192.6	252.6	40.199999999999996
2017-08-15 12:15:37.929986	o	s	0.2255859375	-0.62158203125	-0.71630859375	1.6793893129770991	1.6793893129770991	-1.3893129770992367	192.6	252.6	40.199999999999996
2017-08-15 12:15:37.946027	o	s	0.2568359375	-0.6015625	-0.796142578125	2.0610687022900764	2.0610687022900764	-1.251908396946565	192.6	252.6	40.199999999999996
2017-08-15 12:15:37.963278	o	s	0.236572265625	-0.595947265625	-0.8046875	3.648854961832061	3.648854961832061	-2.1374045801526718	192.6	252.6	40.199999999999996
2017-08-15 12:15:37.979217	o	s	0.243896484375	-0.58984375	-0.845703125	0.8396946564885496	0.8396946564885496	-1.7709923664122138	192.6	252.6	40.199999999999996
2017-08-15 12:15:37.996203	o	s	0.18896484375	-0.55908203125	-0.816162109375	-0.4580152671755725	-0.4580152671755725	-7.511450381679389	192.6	252.6	40.199999999999996
2017-08-15 12:15:38.012104	o	s	0.23046875	-0.552001953125	-0.7744140625	2.183206106870229	2.183206106870229	-7.66412213740458	192.6	252.6	40.199999999999996
2017-08-15 12:15:38.029989	o	s	0.212646484375	-0.5517578125	-0.80908203125	3.618320610687023	3.618320610687023	-5.862595419847328	192.6	252.6	40.199999999999996
2017-08-15 12:15:38.045965	o	s	0.198486328125	-0.5341796875	-0.831298828125	-0.8396946564885496	-0.8396946564885496	-6.6106870229007635	192.6	252.6	40.199999999999996
2017-08-15 12:15:38.062820	o	s	0.222900390625	-0.531982421875	-0.852294921875	-1.9236641221374047	-1.9236641221374047	-7.343511450381679	192.6	252.6	40.199999999999996
2017-08-15 12:15:38.078911	o	s	0.212890625	-0.5146484375	-0.887451171875	-5.312977099236641	-5.312977099236641	-5.0534351145038165	192.6	252.6	40.199999999999996
2017-08-15 12:15:38.097955	o	s	0.24658203125	-0.50341796875	-0.84521484375	-10.778625954198473	-10.778625954198473	-4.0458015267175576	192.6	252.6	40.199999999999996
2017-08-15 12:15:38.116124	o	s	0.20458984375	-0.4755859375	-0.83740234375	-11.694656488549619	-11.694656488549619	-1.6641221374045803	192.6	252.6	40.199999999999996
2017-08-15 12:15:38.132316	o	s	0.21337890625	-0.47216796875	-0.806884765625	-6.320610687022901	-6.320610687022901	-6.305343511450381	192.6	252.6	40.199999999999996
2017-08-15 12:15:38.149290	o	s	0.1962890625	-0.4677734375	-0.819580078125	-2.045801526717557	-2.045801526717557	-3.480916030534351	192.6	252.6	40.199999999999996
2017-08-15 12:15:38.165633	o	s	0.128173828125	-0.24609375	-0.77001953125	-28.16793893129771	-28.16793893129771	-36.12213740458015	192.6	252.6	40.199999999999996
2017-08-15 12:15:38.182082	o	s	0.343994140625	-0.433349609375	-0.84619140625	-20.717557251908396	-20.717557251908396	-30.198473282442748	192.6	252.6	40.199999999999996
2017-08-15 12:15:38.198944	o	s	0.217041015625	-0.425048828125	-0.960693359375	-1.6488549618320612	-1.6488549618320612	-20.625954198473284	192.6	252.6	40.199999999999996
2017-08-15 12:15:38.215310	o	s	0.1357421875	-0.371826171875	-0.9560546875	-5.0534351145038165	-5.0534351145038165	-33.43511450381679	192.6	252.6	40.199999999999996
2017-08-15 12:15:38.234664	o	s	0.212158203125	-0.33544921875	-0.898681640625	-13.938931297709924	-13.938931297709924	-42.595419847328245	192.6	252.6	40.199999999999996
2017-08-15 12:15:38.251324	o	s	0.22314453125	-0.25048828125	-0.95849609375	-17.297709923664122	-17.297709923664122	-46.030534351145036	192.6	252.6	40.199999999999996
2017-08-15 12:15:38.268321	o	s	0.213134765625	-0.278564453125	-0.925537109375	-17.64885496183206	-17.64885496183206	-52.68702290076336	192.6	252.6	40.199999999999996
2017-08-15 12:15:38.284672	o	s	0.224609375	-0.26123046875	-0.969482421875	-26.458015267175572	-26.458015267175572	-44.778625954198475	192.6	252.6	40.199999999999996
2017-08-15 12:15:38.301892	o	s	0.2275390625	-0.263916015625	-0.99951171875	-18.519083969465647	-18.519083969465647	-32.94656488549618	192.6	252.6	40.199999999999996
2017-08-15 12:15:38.323359	o	s	0.241455078125	-0.21875	-0.9873046875	-11.572519083969466	-11.572519083969466	-20.748091603053435	192.6	252.6	40.199999999999996
2017-08-15 12:15:38.346592	o	s	0.189697265625	-0.1513671875	-1.010498046875	-12.763358778625955	-12.763358778625955	-21.46564885496183	192.6	252.6	40.199999999999996
2017-08-15 12:15:38.366378	o	s	0.26953125	-0.1171875	-0.9892578125	-8.946564885496183	-8.946564885496183	-19.083969465648856	192.6	252.6	40.199999999999996
2017-08-15 12:15:38.384060	o	s	0.23486328125	-0.09716796875	-1.006103515625	-7.374045801526718	-7.374045801526718	-16.12213740458015	192.6	252.6	40.199999999999996
2017-08-15 12:15:38.401231	o	s	0.22021484375	-0.087890625	-0.97607421875	-8.778625954198473	-8.778625954198473	-16.946564885496183	192.6	252.6	40.199999999999996
2017-08-15 12:15:38.417439	o	s	0.214111328125	-0.084716796875	-0.96337890625	-10.473282442748092	-10.473282442748092	-19.404580152671755	192.6	252.6	40.199999999999996
2017-08-15 12:15:38.435669	o	s	0.167236328125	-0.080322265625	-0.9697265625	-6.687022900763359	-6.687022900763359	-22.595419847328245	192.6	252.6	40.199999999999996
2017-08-15 12:15:38.452473	o	s	0.228759765625	-0.047607421875	-0.986572265625	-14.13740458015267	-14.13740458015267	-29.740458015267176	192.6	252.6	40.199999999999996
2017-08-15 12:15:38.469172	o	s	0.1796875	0.049072265625	-0.981201171875	-16.259541984732824	-16.259541984732824	-28.977099236641223	192.6	252.6	40.199999999999996
2017-08-15 12:15:38.485088	o	s	0.210205078125	0.033203125	-1.011962890625	-21.69465648854962	-21.69465648854962	-31.66412213740458	192.6	252.6	40.199999999999996
2017-08-15 12:15:38.505143	o	s	0.1669921875	0.029052734375	-1.0419921875	-22.396946564885496	-22.396946564885496	-32.83969465648855	192.6	252.6	40.199999999999996
2017-08-15 12:15:38.527254	o	s	0.20361328125	0.109619140625	-1.0048828125	-19.282442748091604	-19.282442748091604	-29.00763358778626	192.6	252.6	40.199999999999996
2017-08-15 12:15:38.553137	o	s	0.178955078125	0.11962890625	-0.989990234375	-8.931297709923664	-8.931297709923664	-25.389312977099237	192.6	252.6	40.199999999999996
2017-08-15 12:15:38.573780	o	s	0.144775390625	0.166015625	-0.99609375	-21.61832061068702	-21.61832061068702	-30.702290076335878	192.6	252.6	40.199999999999996
2017-08-15 12:15:38.595055	o	s	0.183837890625	0.246826171875	-0.981689453125	-12.488549618320612	-12.488549618320612	-31.61832061068702	192.6	252.6	40.199999999999996
2017-08-15 12:15:38.617449	o	s	0.1220703125	0.246337890625	-0.962646484375	-12.122137404580153	-12.122137404580153	-30.0	192.6	252.6	40.199999999999996
2017-08-15 12:15:38.637623	o	s	0.293212890625	0.261474609375	-0.936767578125	18.85496183206107	18.85496183206107	-14.916030534351146	192.6	252.6	40.199999999999996
2017-08-15 12:15:38.661738	o	s	0.130126953125	0.352783203125	-0.936767578125	5.190839694656488	5.190839694656488	-14.061068702290076	192.6	252.6	40.199999999999996
2017-08-15 12:15:38.682176	o	s	0.13916015625	0.387451171875	-0.91650390625	8.82442748091603	8.82442748091603	-19.96946564885496	192.6	252.6	40.199999999999996
2017-08-15 12:15:38.705712	o	s	0.106689453125	0.457763671875	-0.929443359375	3.099236641221374	3.099236641221374	-30.68702290076336	192.6	252.6	40.199999999999996
2017-08-15 12:15:38.725498	o	s	0.133544921875	0.45947265625	-0.92333984375	7.786259541984733	7.786259541984733	-37.89312977099237	192.6	252.6	40.199999999999996
2017-08-15 12:15:38.747858	o	s	0.130615234375	0.46044921875	-0.906494140625	-3.0381679389312977	-3.0381679389312977	-29.374045801526716	39.0	137.4	-309.0
2017-08-15 12:15:38.775829	o	s	0.11376953125	0.512451171875	-0.8349609375	-3.435114503816794	-3.435114503816794	-25.435114503816795	39.0	137.4	-309.0
2017-08-15 12:15:38.797431	o	s	0.0908203125	0.59716796875	-0.90283203125	-6.885496183206107	-6.885496183206107	-22.15267175572519	39.0	137.4	-309.0
2017-08-15 12:15:38.820382	o	s	0.006103515625	0.579345703125	-0.951416015625	-6.473282442748092	-6.473282442748092	-38.18320610687023	39.0	137.4	-309.0
2017-08-15 12:15:38.843507	o	s	0.079345703125	0.537841796875	-0.86474609375	-24.50381679389313	-24.50381679389313	-56.48854961832061	39.0	137.4	-309.0
2017-08-15 12:15:38.866849	o	s	0.16357421875	0.548828125	-0.742431640625	-12.595419847328245	-12.595419847328245	-31.633587786259543	39.0	137.4	-309.0
2017-08-15 12:15:38.889210	o	s	0.04931640625	0.467529296875	-0.81103515625	2.198473282442748	2.198473282442748	-17.206106870229007	39.0	137.4	-309.0
2017-08-15 12:15:38.910362	o	s	0.100341796875	0.644775390625	-0.81982421875	2.900763358778626	2.900763358778626	2.3206106870229006	39.0	137.4	-309.0
2017-08-15 12:15:38.933533	o	s	0.064208984375	0.669677734375	-0.8056640625	-6.33587786259542	-6.33587786259542	-0.13740458015267176	39.0	137.4	-309.0
2017-08-15 12:15:38.955195	o	s	0.043701171875	0.6171875	-0.79638671875	-19.541984732824428	-19.541984732824428	-11.694656488549619	39.0	137.4	-309.0
2017-08-15 12:15:38.977699	o	s	0.080810546875	0.623291015625	-0.769775390625	-18.15267175572519	-18.15267175572519	-19.52671755725191	39.0	137.4	-309.0
2017-08-15 12:15:39.001670	o	s	0.05419921875	0.64111328125	-0.769287109375	-10.13740458015267	-10.13740458015267	-21.114503816793892	39.0	137.4	-309.0
2017-08-15 12:15:39.022957	o	s	0.072265625	0.69775390625	-0.70361328125	8.351145038167939	8.351145038167939	-35.32824427480916	39.0	137.4	-309.0
2017-08-15 12:15:39.046732	o	s	0.0458984375	0.718994140625	-0.72412109375	14.229007633587786	14.229007633587786	-38.51908396946565	39.0	137.4	-309.0
2017-08-15 12:15:39.068785	o	s	0.02685546875	0.727783203125	-0.732666015625	13.389312977099237	13.389312977099237	-36.595419847328245	39.0	137.4	-309.0
2017-08-15 12:15:39.092262	o	s	0.042724609375	0.718017578125	-0.7080078125	14.0	14.0	-29.099236641221374	39.0	137.4	-309.0
2017-08-15 12:15:39.114145	o	s	0.029296875	0.7802734375	-0.687744140625	15.435114503816793	15.435114503816793	-29.923664122137403	39.0	137.4	-309.0
2017-08-15 12:15:39.130871	o	s	0.031005859375	0.78173828125	-0.65869140625	24.625954198473284	24.625954198473284	-29.328244274809162	39.0	137.4	-309.0
2017-08-15 12:15:39.148131	o	s	0.039306640625	0.76318359375	-0.705078125	29.099236641221374	29.099236641221374	-22.076335877862597	39.0	137.4	-309.0
2017-08-15 12:15:39.165295	o	s	-0.00634765625	0.822021484375	-0.601318359375	31.786259541984734	31.786259541984734	-15.17557251908397	39.0	137.4	-309.0
2017-08-15 12:15:39.181541	o	s	-0.002685546875	0.8408203125	-0.608154296875	27.19083969465649	27.19083969465649	-25.633587786259543	39.0	137.4	-309.0
2017-08-15 12:15:39.201274	o	s	0.013427734375	0.902587890625	-0.606201171875	10.274809160305344	10.274809160305344	-47.221374045801525	39.0	137.4	-309.0
2017-08-15 12:15:39.219006	o	s	-0.0751953125	0.9091796875	-0.521728515625	-3.5114503816793894	-3.5114503816793894	-100.44274809160305	39.0	137.4	-309.0
2017-08-15 12:15:39.237999	o	s	-0.127685546875	0.952880859375	-0.52490234375	-48.16793893129771	-48.16793893129771	-115.95419847328245	39.0	137.4	-309.0
2017-08-15 12:15:39.256117	o	s	-0.080810546875	0.90087890625	-0.626953125	-71.23664122137404	-71.23664122137404	-103.92366412213741	39.0	137.4	-309.0
2017-08-15 12:15:39.272960	o	s	-0.052978515625	0.925537109375	-0.630615234375	-91.66412213740458	-91.66412213740458	-79.57251908396947	39.0	137.4	-309.0
2017-08-15 12:15:39.290071	o	s	-0.104248046875	0.8173828125	-0.465087890625	-84.06106870229007	-84.06106870229007	-62.900763358778626	39.0	137.4	-309.0
2017-08-15 12:15:39.307191	o	s	-0.099609375	0.70703125	-0.50048828125	-69.23664122137404	-69.23664122137404	-27.862595419847327	39.0	137.4	-309.0
2017-08-15 12:15:39.327166	o	s	-0.205322265625	0.795654296875	-0.437744140625	-46.396946564885496	-46.396946564885496	1.1297709923664123	39.0	137.4	-309.0
2017-08-15 12:15:39.345988	o	s	-0.209228515625	0.927978515625	-0.43701171875	-42.3206106870229	-42.3206106870229	27.358778625954198	39.0	137.4	-309.0
2017-08-15 12:15:39.362769	o	s	-0.146728515625	0.991455078125	-0.596923828125	-56.152671755725194	-56.152671755725194	11.16030534351145	39.0	137.4	-309.0
2017-08-15 12:15:39.379668	o	s	-0.150634765625	0.94091796875	-0.4560546875	-35.61832061068702	-35.61832061068702	-10.946564885496183	39.0	137.4	-309.0
2017-08-15 12:15:39.396591	o	s	-0.17626953125	0.86767578125	-0.37158203125	-21.954198473282442	-21.954198473282442	-12.427480916030534	39.0	137.4	-309.0
2017-08-15 12:15:39.413536	o	s	-0.18115234375	0.882568359375	-0.353759765625	-12.549618320610687	-12.549618320610687	-16.18320610687023	39.0	137.4	-309.0
2017-08-15 12:15:39.430275	o	s	-0.2578125	0.900634765625	-0.31787109375	-5.6183206106870225	-5.6183206106870225	6.030534351145038	39.0	137.4	-309.0
2017-08-15 12:15:39.447238	o	s	-0.207763671875	0.973388671875	-0.358642578125	-0.3969465648854962	-0.3969465648854962	5.465648854961832	39.0	137.4	-309.0
2017-08-15 12:15:39.464113	o	s	-0.222900390625	1.013916015625	-0.356201171875	-1.0076335877862594	-1.0076335877862594	-2.4580152671755724	39.0	137.4	-309.0
2017-08-15 12:15:39.481067	o	s	-0.224365234375	0.963623046875	-0.303955078125	-15.404580152671755	-15.404580152671755	-7.862595419847328	39.0	137.4	-309.0
2017-08-15 12:15:39.499204	o	s	-0.192138671875	0.877197265625	-0.2431640625	-18.50381679389313	-18.50381679389313	-14.595419847328245	39.0	137.4	-309.0
2017-08-15 12:15:39.516200	o	s	-0.19921875	0.90087890625	-0.198974609375	-13.86259541984733	-13.86259541984733	-21.755725190839694	39.0	137.4	-309.0
2017-08-15 12:15:39.534782	o	s	-0.29931640625	0.97216796875	-0.16796875	-5.114503816793893	-5.114503816793893	-18.916030534351144	39.0	137.4	-309.0
2017-08-15 12:15:39.551804	o	s	-0.234619140625	1.022216796875	-0.2724609375	-11.17557251908397	-11.17557251908397	-18.68702290076336	39.0	137.4	-309.0
2017-08-15 12:15:39.570197	o	s	-0.234619140625	0.961181640625	-0.2255859375	-17.358778625954198	-17.358778625954198	-20.0	39.0	137.4	-309.0
2017-08-15 12:15:39.587317	o	s	-0.23583984375	0.888427734375	-0.097412109375	-14.549618320610687	-14.549618320610687	-13.312977099236642	39.0	137.4	-309.0
2017-08-15 12:15:39.606751	o	s	-0.195556640625	0.87353515625	-0.125	-22.091603053435115	-22.091603053435115	-29.61832061068702	39.0	137.4	-309.0
2017-08-15 12:15:39.622616	o	s	-0.263671875	0.919921875	-0.088134765625	-23.404580152671755	-23.404580152671755	-28.717557251908396	39.0	137.4	-309.0
2017-08-15 12:15:39.639164	o	s	-0.312744140625	1.048828125	-0.12548828125	-20.916030534351144	-20.916030534351144	-25.404580152671755	39.0	137.4	-309.0
2017-08-15 12:15:39.655357	o	s	-0.3125	1.04296875	-0.146240234375	-24.27480916030534	-24.27480916030534	-24.85496183206107	39.0	137.4	-309.0
2017-08-15 12:15:39.674118	o	s	-0.29345703125	0.944580078125	-0.111083984375	-27.6793893129771	-27.6793893129771	-21.96946564885496	39.0	137.4	-309.0
2017-08-15 12:15:39.690975	o	s	-0.255126953125	0.880859375	-0.077392578125	-18.870229007633586	-18.870229007633586	-18.12213740458015	39.0	137.4	-309.0
2017-08-15 12:15:39.710381	o	s	-0.29833984375	0.95556640625	-0.04931640625	-14.396946564885496	-14.396946564885496	-22.778625954198475	39.0	137.4	-309.0
2017-08-15 12:15:39.727453	o	s	-0.37060546875	1.044677734375	-0.012939453125	-18.748091603053435	-18.748091603053435	-19.770992366412212	39.0	137.4	-309.0
2017-08-15 12:15:39.745866	o	s	-0.35107421875	1.03857421875	-0.0380859375	-33.404580152671755	-33.404580152671755	-33.465648854961835	39.0	137.4	-309.0
2017-08-15 12:15:39.762869	o	s	-0.33154296875	0.935302734375	0.0546875	-38.412213740458014	-38.412213740458014	-25.587786259541986	39.0	137.4	-309.0
2017-08-15 12:15:39.783629	o	s	-0.26171875	0.821044921875	0.0810546875	-27.068702290076335	-27.068702290076335	-30.213740458015266	39.0	137.4	-309.0
2017-08-15 12:15:39.799466	o	s	-0.3271484375	0.923095703125	0.1181640625	-12.870229007633588	-12.870229007633588	-31.603053435114504	39.0	137.4	-309.0
2017-08-15 12:15:39.818977	o	s	-0.3935546875	0.98779296875	0.12353515625	-21.46564885496183	-21.46564885496183	-24.33587786259542	39.0	137.4	-309.0
2017-08-15 12:15:39.848431	o	s	-0.395263671875	0.982177734375	0.155029296875	-33.48091603053435	-33.48091603053435	-24.366412213740457	39.0	137.4	-309.0
2017-08-15 12:15:39.868475	o	s	-0.343017578125	0.902587890625	0.167236328125	-37.52671755725191	-37.52671755725191	-26.27480916030534	39.0	137.4	-309.0
2017-08-15 12:15:39.888797	o	s	-0.299072265625	0.779296875	0.2314453125	-28.03053435114504	-28.03053435114504	-22.03053435114504	39.0	137.4	-309.0
2017-08-15 12:15:39.914611	o	s	-0.37158203125	0.8662109375	0.26318359375	-22.519083969465647	-22.519083969465647	-20.671755725190838	39.0	137.4	-309.0
2017-08-15 12:15:39.931257	o	s	-0.402099609375	0.94091796875	0.299072265625	-20.610687022900763	-20.610687022900763	-17.419847328244273	39.0	137.4	-309.0
2017-08-15 12:15:39.948278	o	s	-0.38818359375	0.936767578125	0.253173828125	-28.580152671755727	-28.580152671755727	-26.82442748091603	39.0	137.4	-309.0
2017-08-15 12:15:39.965252	o	s	-0.38720703125	0.886474609375	0.2822265625	-28.47328244274809	-28.47328244274809	-32.88549618320611	39.0	137.4	-309.0
2017-08-15 12:15:39.981452	o	s	-0.396484375	0.791748046875	0.3720703125	-25.00763358778626	-25.00763358778626	-25.297709923664122	39.0	137.4	-309.0
2017-08-15 12:15:39.998394	o	s	-0.359130859375	0.7919921875	0.377197265625	-16.3206106870229	-16.3206106870229	-26.12213740458015	39.0	137.4	-309.0
2017-08-15 12:15:40.014713	o	s	-0.39990234375	0.831787109375	0.34326171875	-8.580152671755725	-8.580152671755725	-25.923664122137403	39.0	137.4	-309.0
2017-08-15 12:15:40.031708	o	s	-0.44873046875	0.95263671875	0.33154296875	-10.900763358778626	-10.900763358778626	-22.748091603053435	39.0	137.4	-309.0
2017-08-15 12:15:40.047860	o	s	-0.41845703125	0.89697265625	0.315673828125	-21.755725190839694	-21.755725190839694	-30.18320610687023	39.0	137.4	-309.0
2017-08-15 12:15:40.065436	o	s	-0.417236328125	0.830078125	0.415283203125	-27.81679389312977	-27.81679389312977	-37.80152671755725	39.0	137.4	-309.0
2017-08-15 12:15:40.081831	o	s	-0.433349609375	0.746337890625	0.468017578125	-26.458015267175572	-26.458015267175572	-38.045801526717554	39.0	137.4	-309.0
2017-08-15 12:15:40.100097	o	s	-0.404296875	0.77001953125	0.45654296875	-19.541984732824428	-19.541984732824428	-26.50381679389313	39.0	137.4	-309.0
2017-08-15 12:15:40.116983	o	s	-0.414306640625	0.8134765625	0.403564453125	-22.9618320610687	-22.9618320610687	-33.02290076335878	39.0	137.4	-309.0
2017-08-15 12:15:40.134035	o	s	-0.46923828125	0.84375	0.460693359375	-25.267175572519083	-25.267175572519083	-27.770992366412212	39.0	137.4	-309.0
2017-08-15 12:15:40.150001	o	s	-0.444580078125	0.86962890625	0.488037109375	-28.931297709923665	-28.931297709923665	-36.93129770992366	39.0	137.4	-309.0
2017-08-15 12:15:40.170242	o	s	-0.4296875	0.72412109375	0.520751953125	-31.770992366412212	-31.770992366412212	-47.9236641221374	39.0	137.4	-309.0
2017-08-15 12:15:40.187717	o	s	-0.46142578125	0.707763671875	0.572998046875	-29.404580152671755	-29.404580152671755	-41.20610687022901	39.0	137.4	-309.0
2017-08-15 12:15:40.208701	o	s	-0.457275390625	0.697998046875	0.575927734375	-25.61832061068702	-25.61832061068702	-39.7557251908397	39.0	137.4	-309.0
2017-08-15 12:15:40.226340	o	s	-0.48095703125	0.733154296875	0.568603515625	-24.580152671755727	-24.580152671755727	-36.961832061068705	39.0	137.4	-309.0
2017-08-15 12:15:40.243234	o	s	-0.482177734375	0.657470703125	0.583984375	-23.740458015267176	-23.740458015267176	-30.3206106870229	39.0	137.4	-309.0
2017-08-15 12:15:40.259206	o	s	-0.422119140625	0.576904296875	0.602294921875	-23.862595419847327	-23.862595419847327	-22.48854961832061	39.0	137.4	-309.0
2017-08-15 12:15:40.275896	o	s	-0.502197265625	0.655517578125	0.517822265625	-24.259541984732824	-24.259541984732824	-20.778625954198475	39.0	137.4	-309.0
2017-08-15 12:15:40.291700	o	s	-0.413818359375	0.551025390625	0.585205078125	-21.72519083969466	-21.72519083969466	-29.17557251908397	39.0	137.4	-309.0
2017-08-15 12:15:40.311821	o	s	-0.458984375	0.645263671875	0.57080078125	-18.778625954198475	-18.778625954198475	-29.61832061068702	39.0	137.4	-309.0
2017-08-15 12:15:40.327772	o	s	-0.537353515625	0.58447265625	0.690673828125	-16.53435114503817	-16.53435114503817	-29.389312977099237	39.0	137.4	-309.0
2017-08-15 12:15:40.349836	o	s	-0.500732421875	0.55078125	0.721923828125	-14.229007633587786	-14.229007633587786	-15.541984732824428	39.0	137.4	-309.0
2017-08-15 12:15:40.374323	o	s	-0.466552734375	0.54296875	0.68017578125	-7.847328244274809	-7.847328244274809	-17.923664122137403	39.0	137.4	-309.0
2017-08-15 12:15:40.390313	o	s	-0.43994140625	0.508056640625	0.765625	-13.969465648854962	-13.969465648854962	-14.290076335877863	39.0	137.4	-309.0
2017-08-15 12:15:40.413403	o	s	-0.482421875	0.531494140625	0.7109375	-13.786259541984732	-13.786259541984732	-10.366412213740459	39.0	137.4	-309.0
2017-08-15 12:15:40.430554	o	s	-0.4453125	0.461181640625	0.5576171875	-13.022900763358779	-13.022900763358779	5.0534351145038165	39.0	137.4	-309.0
2017-08-15 12:15:40.449362	o	s	-0.449951171875	0.619140625	0.615966796875	-18.580152671755727	-18.580152671755727	14.076335877862595	39.0	137.4	-309.0
2017-08-15 12:15:40.466793	o	s	-0.431640625	0.55517578125	0.677490234375	-19.34351145038168	-19.34351145038168	-19.435114503816795	39.0	137.4	-309.0
2017-08-15 12:15:40.483378	o	s	-0.459716796875	0.479248046875	0.73388671875	-10.687022900763358	-10.687022900763358	-16.717557251908396	39.0	137.4	-309.0
2017-08-15 12:15:40.499473	o	s	-0.427490234375	0.502685546875	0.70849609375	-3.5877862595419847	-3.5877862595419847	-14.900763358778626	39.0	137.4	-309.0
2017-08-15 12:15:40.516175	o	s	-0.41796875	0.568359375	0.662841796875	-8.732824427480915	-8.732824427480915	-28.061068702290076	39.0	137.4	-309.0
2017-08-15 12:15:40.532089	o	s	-0.464111328125	0.572021484375	0.68359375	-12.793893129770993	-12.793893129770993	-27.17557251908397	39.0	137.4	-309.0
2017-08-15 12:15:40.549210	o	s	-0.488037109375	0.552734375	0.71728515625	-12.0	-12.0	-23.84732824427481	39.0	137.4	-309.0
2017-08-15 12:15:40.565365	o	s	-0.468505859375	0.494384765625	0.7734375	-12.488549618320612	-12.488549618320612	-22.076335877862597	39.0	137.4	-309.0
2017-08-15 12:15:40.582476	o	s	-0.5712890625	0.457275390625	0.806884765625	-24.65648854961832	-24.65648854961832	8.045801526717558	39.0	137.4	-309.0
2017-08-15 12:15:40.598839	o	s	-0.52099609375	0.51904296875	0.806640625	-32.35114503816794	-32.35114503816794	27.49618320610687	39.0	137.4	-309.0
2017-08-15 12:15:40.617147	o	s	-0.4697265625	0.517578125	0.64013671875	-35.87786259541985	-35.87786259541985	38.06106870229008	39.0	137.4	-309.0
2017-08-15 12:15:40.638689	o	s	-0.422607421875	0.49365234375	0.656982421875	-44.10687022900763	-44.10687022900763	36.76335877862596	39.0	137.4	-309.0
2017-08-15 12:15:40.664356	o	s	-0.440185546875	0.503173828125	0.753662109375	-42.74809160305343	-42.74809160305343	50.213740458015266	39.0	137.4	-309.0
2017-08-15 12:15:40.684900	o	s	-0.351318359375	0.470458984375	0.781982421875	-55.51145038167939	-55.51145038167939	41.00763358778626	39.0	137.4	-309.0
2017-08-15 12:15:40.706072	o	s	-0.330810546875	0.504638671875	0.8369140625	-24.99236641221374	-24.99236641221374	9.068702290076336	39.0	137.4	-309.0
2017-08-15 12:15:40.726229	o	s	-0.3525390625	0.447021484375	0.782958984375	-31.34351145038168	-31.34351145038168	19.572519083969464	39.0	137.4	-309.0
2017-08-15 12:15:40.746814	o	s	-0.32421875	0.476806640625	0.8125	-34.06106870229008	-34.06106870229008	19.893129770992367	39.0	137.4	-309.0
2017-08-15 12:15:40.771808	o	s	-0.364990234375	0.50244140625	0.79296875	-29.083969465648856	-29.083969465648856	10.748091603053435	39.0	137.4	-309.0
2017-08-15 12:15:40.792345	o	s	-0.3134765625	0.41552734375	0.83544921875	-23.66412213740458	-23.66412213740458	15.923664122137405	39.0	137.4	-309.0
2017-08-15 12:15:40.816161	o	s	-0.3359375	0.4755859375	0.834228515625	-31.19083969465649	-31.19083969465649	14.16793893129771	39.0	137.4	-309.0
2017-08-15 12:15:40.836577	o	s	-0.28271484375	0.460205078125	0.8193359375	-25.587786259541986	-25.587786259541986	3.0839694656488548	39.0	137.4	-309.0
2017-08-15 12:15:40.857903	o	s	-0.290283203125	0.40673828125	0.830322265625	-28.38167938931298	-28.38167938931298	8.50381679389313	39.0	137.4	-309.0
2017-08-15 12:15:40.877874	o	s	-0.2724609375	0.4306640625	0.86572265625	-33.31297709923664	-33.31297709923664	8.580152671755725	39.0	137.4	-309.0
2017-08-15 12:15:40.898723	o	s	-0.28369140625	0.421875	0.892822265625	-28.80916030534351	-28.80916030534351	8.778625954198473	39.0	137.4	-309.0
2017-08-15 12:15:40.919187	o	s	-0.2646484375	0.436279296875	0.874755859375	-22.793893129770993	-22.793893129770993	5.893129770992366	39.0	137.4	-309.0
2017-08-15 12:15:40.940413	o	s	-0.2451171875	0.41162109375	0.882568359375	-9.954198473282442	-9.954198473282442	-7.251908396946565	39.0	137.4	-309.0
2017-08-15 12:15:40.967897	o	s	-0.235595703125	0.40087890625	0.86572265625	-11.114503816793894	-11.114503816793894	-11.465648854961833	39.0	137.4	-309.0
2017-08-15 12:15:40.990168	o	s	-0.240478515625	0.388916015625	0.875	-10.931297709923664	-10.931297709923664	-19.358778625954198	39.0	137.4	-309.0
2017-08-15 12:15:41.013743	o	s	-0.26708984375	0.3662109375	0.869140625	-16.366412213740457	-16.366412213740457	-17.51145038167939	39.0	137.4	-309.0
2017-08-15 12:15:41.035333	o	s	-0.247802734375	0.360107421875	0.885009765625	-21.923664122137403	-21.923664122137403	-10.259541984732824	39.0	137.4	-309.0
2017-08-15 12:15:41.056744	o	s	-0.253173828125	0.349853515625	0.895263671875	-13.49618320610687	-13.49618320610687	-10.335877862595419	39.0	137.4	-309.0
2017-08-15 12:15:41.083447	o	s	-0.226806640625	0.3330078125	0.91552734375	-19.419847328244273	-19.419847328244273	-9.053435114503817	39.0	137.4	-309.0
2017-08-15 12:15:41.108846	o	s	-0.227783203125	0.309814453125	0.9521484375	-14.076335877862595	-14.076335877862595	-5.022900763358779	39.0	137.4	-309.0
2017-08-15 12:15:41.130183	o	s	-0.21435546875	0.310546875	0.904296875	-7.603053435114504	-7.603053435114504	-2.1526717557251906	39.0	137.4	-309.0
2017-08-15 12:15:41.154536	o	s	-0.224609375	0.327880859375	0.904296875	-13.954198473282442	-13.954198473282442	-5.969465648854962	39.0	137.4	-309.0
2017-08-15 12:15:41.170588	o	s	-0.201416015625	0.289794921875	1.01708984375	-14.488549618320612	-14.488549618320612	-5.236641221374046	39.0	137.4	-309.0
2017-08-15 12:15:41.187097	o	s	-0.20458984375	0.31201171875	0.99365234375	-11.022900763358779	-11.022900763358779	-1.8473282442748091	39.0	137.4	-309.0
2017-08-15 12:15:41.204557	o	s	-0.19140625	0.271240234375	0.955810546875	-4.473282442748092	-4.473282442748092	-2.595419847328244	39.0	137.4	-309.0
2017-08-15 12:15:41.221462	o	s	-0.2119140625	0.28271484375	0.89453125	-7.908396946564886	-7.908396946564886	-1.6030534351145038	39.0	137.4	-309.0
2017-08-15 12:15:41.239371	o	s	-0.2041015625	0.274658203125	0.911865234375	-12.83969465648855	-12.83969465648855	-2.4885496183206106	39.0	137.4	-309.0
2017-08-15 12:15:41.255737	o	s	-0.18896484375	0.246826171875	0.982177734375	-13.938931297709924	-13.938931297709924	-7.801526717557252	39.0	137.4	-309.0
2017-08-15 12:15:41.273241	o	s	-0.186279296875	0.22802734375	1.037841796875	-12.458015267175572	-12.458015267175572	-4.366412213740458	39.0	137.4	-309.0
2017-08-15 12:15:41.290519	o	s	-0.181396484375	0.21240234375	0.98046875	-13.877862595419847	-13.877862595419847	0.9007633587786259	39.0	137.4	-309.0
2017-08-15 12:15:41.307933	o	s	-0.208984375	0.205322265625	0.95361328125	-16.610687022900763	-16.610687022900763	2.9770992366412212	39.0	137.4	-309.0
2017-08-15 12:15:41.324060	o	s	-0.172607421875	0.21435546875	0.971923828125	-18.48854961832061	-18.48854961832061	1.5114503816793894	39.0	137.4	-309.0
2017-08-15 12:15:41.341490	o	s	-0.163818359375	0.190185546875	0.96435546875	-21.374045801526716	-21.374045801526716	2.198473282442748	39.0	137.4	-309.0
2017-08-15 12:15:41.357495	o	s	-0.17236328125	0.19287109375	0.957763671875	-26.366412213740457	-26.366412213740457	2.946564885496183	39.0	137.4	-309.0
2017-08-15 12:15:41.377513	o	s	-0.148193359375	0.154052734375	0.979736328125	-27.801526717557252	-27.801526717557252	3.8473282442748094	39.0	137.4	-309.0
2017-08-15 12:15:41.394212	o	s	-0.154541015625	0.153564453125	0.95654296875	-28.396946564885496	-28.396946564885496	4.8396946564885495	39.0	137.4	-309.0
2017-08-15 12:15:41.417358	o	s	-0.16455078125	0.146728515625	0.941650390625	-28.900763358778626	-28.900763358778626	3.282442748091603	39.0	137.4	-309.0
2017-08-15 12:15:41.433388	o	s	-0.15478515625	0.149169921875	0.9384765625	-23.053435114503817	-23.053435114503817	1.9236641221374047	39.0	137.4	-309.0
2017-08-15 12:15:41.450157	o	s	-0.156005859375	0.14453125	0.998046875	-24.9618320610687	-24.9618320610687	-0.6717557251908397	39.0	137.4	-309.0
2017-08-15 12:15:41.466392	o	s	-0.11083984375	0.11328125	1.017578125	-21.419847328244273	-21.419847328244273	-3.49618320610687	39.0	137.4	-309.0
2017-08-15 12:15:41.484451	o	s	-0.125732421875	0.110595703125	1.003173828125	-16.732824427480917	-16.732824427480917	-5.267175572519084	39.0	137.4	-309.0
2017-08-15 12:15:41.500462	o	s	-0.127197265625	0.113525390625	0.965087890625	-14.213740458015268	-14.213740458015268	-5.816793893129771	39.0	137.4	-309.0
2017-08-15 12:15:41.517132	o	s	-0.109130859375	0.091064453125	0.983642578125	-16.83969465648855	-16.83969465648855	-1.2366412213740459	39.0	137.4	-309.0
2017-08-15 12:15:41.533212	o	s	-0.097412109375	0.10205078125	0.984130859375	-22.916030534351144	-22.916030534351144	-0.5343511450381679	39.0	137.4	-309.0
2017-08-15 12:15:41.551247	o	s	-0.094482421875	0.10107421875	1.03759765625	-24.68702290076336	-24.68702290076336	-1.1908396946564885	39.0	137.4	-309.0
2017-08-15 12:15:41.568346	o	s	-0.085205078125	0.075927734375	1.016357421875	-24.137404580152673	-24.137404580152673	-0.9618320610687023	39.0	137.4	-309.0
2017-08-15 12:15:41.587042	o	s	-0.0830078125	0.057373046875	1.01318359375	-27.572519083969464	-27.572519083969464	4.0	39.0	137.4	-309.0
2017-08-15 12:15:41.602902	o	s	-0.09814453125	0.07470703125	1.006591796875	-24.595419847328245	-24.595419847328245	4.625954198473282	39.0	137.4	-309.0
2017-08-15 12:15:41.619512	o	s	-0.103759765625	0.076904296875	0.982177734375	-24.82442748091603	-24.82442748091603	3.7557251908396947	39.0	137.4	-309.0
2017-08-15 12:15:41.635637	o	s	-0.07568359375	0.077392578125	1.020751953125	-22.85496183206107	-22.85496183206107	-0.6259541984732825	39.0	137.4	-309.0
2017-08-15 12:15:41.652510	o	s	-0.06396484375	0.04150390625	1.05859375	-21.358778625954198	-21.358778625954198	-3.435114503816794	39.0	137.4	-309.0
2017-08-15 12:15:41.668634	o	s	-0.053955078125	0.0419921875	1.032470703125	-19.862595419847327	-19.862595419847327	-2.381679389312977	39.0	137.4	-309.0
2017-08-15 12:15:41.686258	o	s	-0.053955078125	0.035888671875	1.011474609375	-23.129770992366414	-23.129770992366414	0.6259541984732825	39.0	137.4	-309.0
2017-08-15 12:15:41.703389	o	s	-0.04150390625	0.04248046875	0.99609375	-20.702290076335878	-20.702290076335878	1.8625954198473282	39.0	137.4	-309.0
2017-08-15 12:15:41.722174	o	s	-0.00048828125	0.04345703125	1.0029296875	-21.755725190839694	-21.755725190839694	1.786259541984733	39.0	137.4	-309.0
2017-08-15 12:15:41.740989	o	s	-0.03759765625	0.05126953125	0.983642578125	-21.251908396946565	-21.251908396946565	0.42748091603053434	39.0	137.4	-309.0
2017-08-15 12:15:41.760608	o	s	-0.000244140625	0.031982421875	1.027099609375	-16.442748091603054	-16.442748091603054	-0.6870229007633588	39.0	137.4	-309.0
2017-08-15 12:15:41.777760	o	s	-0.005126953125	0.010986328125	1.029052734375	-17.236641221374047	-17.236641221374047	-1.297709923664122	39.0	137.4	-309.0
2017-08-15 12:15:41.796664	o	s	-0.03466796875	0.0244140625	0.99853515625	-22.65648854961832	-22.65648854961832	-0.9007633587786259	39.0	137.4	-309.0
2017-08-15 12:15:41.813571	o	s	-0.00927734375	0.015625	0.996337890625	-21.786259541984734	-21.786259541984734	-2.2900763358778624	39.0	137.4	-309.0
2017-08-15 12:15:41.834933	o	s	-0.031982421875	-0.0107421875	1.046142578125	-5.66412213740458	-5.66412213740458	0.44274809160305345	39.0	137.4	-309.0
2017-08-15 12:15:41.858739	o	s	-0.01708984375	0.003662109375	1.003173828125	-4.67175572519084	-4.67175572519084	7.480916030534351	39.0	137.4	-309.0
2017-08-15 12:15:41.880479	o	s	0.025390625	0.003662109375	1.023193359375	-3.450381679389313	-3.450381679389313	8.702290076335878	39.0	137.4	-309.0
2017-08-15 12:15:41.908972	o	s	0.00732421875	0.013916015625	0.99755859375	-5.648854961832061	-5.648854961832061	6.519083969465649	39.0	137.4	-309.0
2017-08-15 12:15:41.929289	o	s	0.002685546875	0.01123046875	0.99951171875	-11.923664122137405	-11.923664122137405	5.099236641221374	39.0	137.4	-309.0
2017-08-15 12:15:41.950197	o	s	0.022216796875	0.027099609375	1.013427734375	-10.992366412213741	-10.992366412213741	2.0610687022900764	39.0	137.4	-309.0
2017-08-15 12:15:41.970054	o	s	0.00146484375	0.03857421875	0.991943359375	0.061068702290076333	0.061068702290076333	-1.1603053435114503	39.0	137.4	-309.0
2017-08-15 12:15:41.991052	o	s	0.01171875	0.03271484375	0.968505859375	1.7251908396946565	1.7251908396946565	-1.3435114503816794	39.0	137.4	-309.0
2017-08-15 12:15:42.011842	o	s	0.025146484375	0.020263671875	1.025634765625	1.1145038167938932	1.1145038167938932	-3.114503816793893	39.0	137.4	-309.0
2017-08-15 12:15:42.036744	o	s	0.018310546875	0.027099609375	0.978759765625	0.6870229007633588	0.6870229007633588	-2.687022900763359	39.0	137.4	-309.0
2017-08-15 12:15:42.059388	o	s	0.02001953125	0.01025390625	1.00927734375	3.3435114503816794	3.3435114503816794	0.9770992366412213	39.0	137.4	-309.0
2017-08-15 12:15:42.082836	o	s	-0.007568359375	0.030029296875	0.986328125	5.740458015267175	5.740458015267175	4.030534351145038	39.0	137.4	-309.0
2017-08-15 12:15:42.104414	o	s	0.003662109375	0.0224609375	1.004638671875	10.381679389312977	10.381679389312977	4.854961832061068	39.0	137.4	-309.0
2017-08-15 12:15:42.125022	o	s	0.00390625	0.02685546875	1.011962890625	14.534351145038167	14.534351145038167	4.290076335877862	39.0	137.4	-309.0
2017-08-15 12:15:42.142395	o	s	0.021728515625	0.043212890625	1.015380859375	22.198473282442748	22.198473282442748	6.244274809160306	39.0	137.4	-309.0
2017-08-15 12:15:42.158862	o	s	-0.009521484375	0.029296875	1.017578125	15.374045801526718	15.374045801526718	2.1374045801526718	39.0	137.4	-309.0
2017-08-15 12:15:42.175897	o	s	0.004638671875	0.020751953125	0.99560546875	10.274809160305344	10.274809160305344	-0.3969465648854962	39.0	137.4	-309.0
2017-08-15 12:15:42.192220	o	s	-0.000244140625	0.05810546875	1.047607421875	31.862595419847327	31.862595419847327	-1.0381679389312977	39.0	137.4	-309.0
2017-08-15 12:15:42.210338	o	s	-0.3603515625	0.197998046875	0.979736328125	-9.816793893129772	-9.816793893129772	-2.045801526717557	39.0	137.4	-309.0
2017-08-15 12:15:42.226707	o	s	-0.007080078125	0.047119140625	1.006591796875	-4.183206106870229	-4.183206106870229	-1.4961832061068703	39.0	137.4	-309.0
2017-08-15 12:15:42.244494	o	s	-0.00537109375	0.02001953125	1.0234375	-1.8931297709923665	-1.8931297709923665	-2.885496183206107	39.0	137.4	-309.0
2017-08-15 12:15:42.260552	o	s	-0.002685546875	0.02978515625	0.98974609375	-1.3587786259541985	-1.3587786259541985	-4.3816793893129775	39.0	137.4	-309.0
2017-08-15 12:15:42.277856	o	s	-0.02197265625	0.0205078125	1.001220703125	-1.2366412213740459	-1.2366412213740459	-1.5114503816793894	39.0	137.4	-309.0
2017-08-15 12:15:42.293820	o	s	-0.015625	0.01416015625	1.00390625	-2.6106870229007635	-2.6106870229007635	-0.32061068702290074	39.0	137.4	-309.0
2017-08-15 12:15:42.310739	o	s	-0.021728515625	0.02197265625	1.004150390625	-1.9083969465648856	-1.9083969465648856	0.9465648854961832	39.0	137.4	-309.0
2017-08-15 12:15:42.326759	o	s	-0.017822265625	0.019775390625	0.99755859375	-1.9694656488549618	-1.9694656488549618	1.5267175572519085	39.0	137.4	-309.0
2017-08-15 12:15:42.343539	o	s	-0.019775390625	0.01904296875	1.00048828125	-2.366412213740458	-2.366412213740458	2.3969465648854964	39.0	137.4	-309.0
2017-08-15 12:15:42.363548	o	s	0.000732421875	0.03369140625	1.0029296875	-4.8396946564885495	-4.8396946564885495	6.687022900763359	39.0	137.4	-309.0
2017-08-15 12:15:42.387719	o	s	0.002197265625	0.026123046875	1.002197265625	-5.251908396946565	-5.251908396946565	3.068702290076336	39.0	137.4	-309.0
2017-08-15 12:15:42.404012	o	s	-0.02197265625	0.010498046875	1.000244140625	-3.6793893129770994	-3.6793893129770994	5.450381679389313	39.0	137.4	-309.0
2017-08-15 12:15:42.421399	o	s	-0.009765625	0.02001953125	1.0048828125	-3.480916030534351	-3.480916030534351	4.961832061068702	39.0	137.4	-309.0
2017-08-15 12:15:42.438063	o	s	-0.01171875	0.017578125	1.001708984375	-3.3435114503816794	-3.3435114503816794	5.374045801526718	39.0	137.4	-309.0
2017-08-15 12:15:42.455114	o	s	0.002197265625	0.027099609375	1.0048828125	-4.702290076335878	-4.702290076335878	3.0381679389312977	39.0	137.4	-309.0
2017-08-15 12:15:42.471005	o	s	-0.007080078125	0.021484375	0.974609375	-4.198473282442748	-4.198473282442748	2.0763358778625953	39.0	137.4	-309.0
2017-08-15 12:15:42.494469	o	s	0.00048828125	0.02099609375	1.00244140625	-2.885496183206107	-2.885496183206107	0.8244274809160306	39.0	137.4	-309.0
2017-08-15 12:15:42.510327	o	s	-0.005859375	0.02099609375	0.994873046875	-5.251908396946565	-5.251908396946565	0.9465648854961832	39.0	137.4	-309.0
2017-08-15 12:15:42.529188	o	s	-0.00244140625	0.02001953125	0.998291015625	-5.038167938931298	-5.038167938931298	0.8854961832061069	39.0	137.4	-309.0
2017-08-15 12:15:42.545189	o	s	0.014404296875	0.020751953125	1.018798828125	-2.3206106870229006	-2.3206106870229006	1.0076335877862594	39.0	137.4	-309.0
2017-08-15 12:15:42.564231	o	s	-0.001953125	0.017822265625	1.002685546875	-1.4045801526717556	-1.4045801526717556	1.0534351145038168	39.0	137.4	-309.0
2017-08-15 12:15:42.581188	o	s	-0.0517578125	0.0224609375	0.9365234375	-10.412213740458014	-10.412213740458014	0.7938931297709924	39.0	137.4	-309.0
2017-08-15 12:15:42.598976	o	s	0.00244140625	0.0185546875	1.0068359375	-0.061068702290076333	-0.061068702290076333	0.9465648854961832	39.0	137.4	-309.0
2017-08-15 12:15:42.615081	o	s	0.000244140625	0.05712890625	0.9345703125	-4.091603053435114	-4.091603053435114	-4.534351145038168	39.0	137.4	-309.0
2017-08-15 12:15:42.631712	o	s	-0.0205078125	0.02392578125	0.99951171875	-7.267175572519084	-7.267175572519084	-10.229007633587786	39.0	137.4	-309.0
2017-08-15 12:15:42.647874	o	s	-0.03564453125	0.01123046875	1.01318359375	-5.145038167938932	-5.145038167938932	-6.99236641221374	39.0	137.4	-309.0
2017-08-15 12:15:42.665201	o	s	-0.010498046875	0.02001953125	1.002197265625	0.183206106870229	0.183206106870229	-6.442748091603053	39.0	137.4	-309.0
2017-08-15 12:15:42.681901	o	s	-0.000732421875	0.01611328125	1.0029296875	-3.9083969465648853	-3.9083969465648853	-3.450381679389313	39.0	137.4	-309.0
2017-08-15 12:15:42.698807	o	s	-0.011474609375	0.02392578125	1.005126953125	-0.015267175572519083	-0.015267175572519083	-2.351145038167939	39.0	137.4	-309.0
2017-08-15 12:15:42.714734	o	s	0.010009765625	0.02587890625	1.000732421875	-0.2595419847328244	-0.2595419847328244	-4.259541984732825	39.0	137.4	-309.0
2017-08-15 12:15:42.731316	o	s	0.0009765625	0.01904296875	0.998779296875	-0.2748091603053435	-0.2748091603053435	-4.229007633587786	39.0	137.4	-309.0
2017-08-15 12:15:42.747341	o	s	0.017333984375	0.02294921875	1.005126953125	0.07633587786259542	0.07633587786259542	-3.954198473282443	39.0	137.4	-309.0
2017-08-15 12:15:42.768167	o	s	0.004150390625	0.02001953125	0.99462890625	-0.015267175572519083	-0.015267175572519083	0.916030534351145	39.0	137.4	-309.0
2017-08-15 12:15:42.784297	o	s	0.001220703125	0.020751953125	0.970703125	-0.6412213740458015	-0.6412213740458015	1.099236641221374	39.0	137.4	-309.0
2017-08-15 12:15:42.801890	o	s	0.030029296875	0.01904296875	1.007080078125	-2.0	-2.0	1.4045801526717556	39.0	137.4	-309.0
2017-08-15 12:15:42.818160	o	s	-0.0615234375	-0.016357421875	1.011962890625	-0.549618320610687	-0.549618320610687	6.473282442748092	39.0	137.4	-309.0
2017-08-15 12:15:42.834207	o	s	0.034423828125	0.055419921875	1.00634765625	1.8931297709923665	1.8931297709923665	12.442748091603054	39.0	137.4	-309.0
2017-08-15 12:15:42.855205	o	s	0.03857421875	0.015625	1.0029296875	0.6106870229007634	0.6106870229007634	14.213740458015268	39.0	137.4	-309.0
2017-08-15 12:15:42.877114	o	s	-0.25390625	0.0732421875	1.021484375	-1.1145038167938932	-1.1145038167938932	103.23664122137404	39.0	137.4	-309.0
2017-08-15 12:15:42.899863	o	s	-0.275634765625	0.10595703125	1.07373046875	-9.969465648854962	-9.969465648854962	190.65648854961833	39.0	137.4	-309.0
2017-08-15 12:15:42.922996	o	s	-0.2060546875	0.021484375	0.972412109375	-3.1297709923664123	-3.1297709923664123	262.0	39.0	137.4	-309.0
2017-08-15 12:15:42.944018	o	s	0.634033203125	-0.125732421875	0.93408203125	-2.351145038167939	-2.351145038167939	121.86259541984732	39.0	137.4	-309.0
2017-08-15 12:15:42.965563	o	s	0.310546875	-0.063232421875	1.0048828125	2.2595419847328246	2.2595419847328246	-11.251908396946565	39.0	137.4	-309.0
2017-08-15 12:15:42.985978	o	s	-0.06640625	-0.0146484375	1.00341796875	3.66412213740458	3.66412213740458	-1.450381679389313	39.0	137.4	-309.0
2017-08-15 12:15:43.005986	o	s	0.022216796875	0.021240234375	1.003662109375	-0.6259541984732825	-0.6259541984732825	0.32061068702290074	39.0	137.4	-309.0
2017-08-15 12:15:43.026184	o	s	0.002685546875	0.013671875	0.974365234375	1.1145038167938932	1.1145038167938932	-2.717557251908397	39.0	137.4	-309.0
2017-08-15 12:15:43.046697	o	s	0.005615234375	0.018310546875	1.005126953125	0.12213740458015267	0.12213740458015267	-4.3816793893129775	39.0	137.4	-309.0
2017-08-15 12:15:43.067196	o	s	0.02978515625	0.00439453125	1.0029296875	0.5343511450381679	0.5343511450381679	-3.7404580152671754	39.0	137.4	-309.0
2017-08-15 12:15:43.087485	o	s	0.00927734375	0.010498046875	1.002685546875	0.16793893129770993	0.16793893129770993	-1.282442748091603	39.0	137.4	-309.0
2017-08-15 12:15:43.525032	o	s	-0.001220703125	0.020263671875	1.000244140625	0.12213740458015267	0.12213740458015267	-3.648854961832061	39.0	137.4	-309.0
2017-08-15 12:15:43.552235	o	s	0.0107421875	0.008056640625	0.9951171875	-0.24427480916030533	-0.24427480916030533	-4.229007633587786	39.0	137.4	-309.0
2017-08-15 12:15:43.577928	o	s	0.001953125	0.0205078125	0.996826171875	0.13740458015267176	0.13740458015267176	-1.3587786259541985	39.0	137.4	-309.0
2017-08-15 12:15:43.600458	o	s	0.009521484375	0.01611328125	1.002197265625	0.22900763358778625	0.22900763358778625	1.0381679389312977	39.0	137.4	-309.0
2017-08-15 12:15:43.626548	o	s	0.096435546875	0.000732421875	1.00146484375	-0.732824427480916	-0.732824427480916	-14.65648854961832	39.0	137.4	-309.0
2017-08-15 12:15:43.657589	o	s	0.000244140625	0.021484375	0.994873046875	-2.0	-2.0	-11.709923664122137	39.0	137.4	-309.0
2017-08-15 12:15:43.673778	o	s	0.01220703125	0.019287109375	1.005615234375	0.9007633587786259	0.9007633587786259	-3.7251908396946565	39.0	137.4	-309.0
2017-08-15 12:15:43.691646	o	s	0.013427734375	0.010986328125	1.0	1.5114503816793894	1.5114503816793894	-5.450381679389313	39.0	137.4	-309.0
2017-08-15 12:15:43.707653	o	s	0.013671875	0.015625	1.005859375	0.9007633587786259	0.9007633587786259	-6.824427480916031	39.0	137.4	-309.0
2017-08-15 12:15:43.724418	o	s	0.011962890625	0.016357421875	0.999267578125	-1.3129770992366412	-1.3129770992366412	-12.122137404580153	39.0	137.4	-309.0
2017-08-15 12:15:43.740337	o	s	0.032470703125	0.0068359375	1.013671875	5.190839694656488	5.190839694656488	-12.274809160305344	39.0	137.4	-309.0
2017-08-15 12:15:43.757307	o	s	-0.00830078125	0.02001953125	0.99462890625	3.8931297709923665	3.8931297709923665	-20.946564885496183	39.0	137.4	-309.0
2017-08-15 12:15:43.773304	o	s	0.05859375	0.055419921875	0.959716796875	0.6564885496183206	0.6564885496183206	-26.35114503816794	39.0	137.4	-309.0
2017-08-15 12:15:43.790288	o	s	0.08154296875	0.037353515625	1.024169921875	-3.5419847328244276	-3.5419847328244276	-21.740458015267176	39.0	137.4	-309.0
2017-08-15 12:15:43.806167	o	s	0.04638671875	0.041015625	1.0478515625	1.5114503816793894	1.5114503816793894	-25.114503816793892	39.0	137.4	-309.0
2017-08-15 12:15:43.826910	o	s	0.021240234375	0.007568359375	0.994140625	5.251908396946565	5.251908396946565	-18.015267175572518	39.0	137.4	-309.0
2017-08-15 12:15:43.843641	o	s	-0.024169921875	0.031005859375	1.005859375	1.984732824427481	1.984732824427481	-9.267175572519085	39.0	137.4	-309.0
2017-08-15 12:15:43.862768	o	s	-0.04541015625	0.025634765625	0.96533203125	1.0229007633587786	1.0229007633587786	-9.007633587786259	39.0	137.4	-309.0
2017-08-15 12:15:43.879701	o	s	0.0009765625	0.042236328125	1.000732421875	1.1755725190839694	1.1755725190839694	-15.557251908396946	39.0	137.4	-309.0
2017-08-15 12:15:43.898957	o	s	0.115478515625	0.114013671875	0.9638671875	0.0916030534351145	0.0916030534351145	-14.335877862595419	39.0	137.4	-309.0
2017-08-15 12:15:43.916086	o	s	0.00830078125	0.041748046875	0.988037109375	-0.2900763358778626	-0.2900763358778626	-13.435114503816793	39.0	137.4	-309.0
2017-08-15 12:15:43.934663	o	s	0.016357421875	0.042724609375	0.994384765625	0.04580152671755725	0.04580152671755725	-8.488549618320612	39.0	137.4	-309.0
2017-08-15 12:15:43.952249	o	s	0.029541015625	0.0283203125	0.989990234375	-0.12213740458015267	-0.12213740458015267	-5.801526717557252	39.0	137.4	-309.0
2017-08-15 12:15:43.970535	o	s	0.021728515625	0.02587890625	0.99560546875	0.9465648854961832	0.9465648854961832	-4.320610687022901	39.0	137.4	-309.0
2017-08-15 12:15:43.987993	o	s	-0.00537109375	0.03857421875	0.98681640625	-1.2366412213740459	-1.2366412213740459	-4.061068702290076	39.0	137.4	-309.0
2017-08-15 12:15:44.006127	o	s	-0.00439453125	0.021240234375	1.015869140625	-1.2213740458015268	-1.2213740458015268	-3.145038167938931	39.0	137.4	-309.0
2017-08-15 12:15:44.023374	o	s	-0.0166015625	0.0439453125	0.9892578125	-1.450381679389313	-1.450381679389313	-5.847328244274809	39.0	137.4	-309.0
2017-08-15 12:15:44.041653	o	s	-0.01123046875	0.05517578125	1.003662109375	-0.8244274809160306	-0.8244274809160306	-7.221374045801527	39.0	137.4	-309.0
2017-08-15 12:15:44.060514	o	s	0.012939453125	0.085205078125	1.006591796875	1.251908396946565	1.251908396946565	-9.389312977099237	39.0	137.4	-309.0
2017-08-15 12:15:44.076971	o	s	-0.037841796875	0.02197265625	0.99658203125	0.04580152671755725	0.04580152671755725	-8.67175572519084	39.0	137.4	-309.0
2017-08-15 12:15:44.093302	o	s	-0.019287109375	0.029541015625	1.00048828125	0.48854961832061067	0.48854961832061067	-7.419847328244275	39.0	137.4	-309.0
2017-08-15 12:15:44.109724	o	s	0.03369140625	0.021240234375	1.000244140625	-0.8854961832061069	-0.8854961832061069	-6.290076335877862	39.0	137.4	-309.0
2017-08-15 12:15:44.126554	o	s	0.009521484375	0.01416015625	1.00341796875	1.1145038167938932	1.1145038167938932	-8.51908396946565	39.0	137.4	-309.0
2017-08-15 12:15:44.142890	o	s	0.022216796875	0.01904296875	1.013671875	1.6641221374045803	1.6641221374045803	-11.86259541984733	39.0	137.4	-309.0
2017-08-15 12:15:44.159990	o	s	0.014892578125	0.019775390625	1.0087890625	-0.1984732824427481	-0.1984732824427481	-17.022900763358777	39.0	137.4	-309.0
2017-08-15 12:15:44.176274	o	s	0.033935546875	0.01416015625	1.00341796875	-0.0916030534351145	-0.0916030534351145	-20.427480916030536	39.0	137.4	-309.0
2017-08-15 12:15:44.194946	o	s	-0.02783203125	0.0126953125	0.994140625	2.183206106870229	2.183206106870229	-17.328244274809162	39.0	137.4	-309.0
2017-08-15 12:15:44.211197	o	s	-0.11474609375	-0.01220703125	0.974365234375	0.7786259541984732	0.7786259541984732	-4.702290076335878	39.0	137.4	-309.0
2017-08-15 12:15:44.227978	o	s	-0.031982421875	-0.02099609375	1.011962890625	1.7099236641221374	1.7099236641221374	-2.763358778625954	39.0	137.4	-309.0
2017-08-15 12:15:44.244331	o	s	0.005615234375	0.007568359375	1.005615234375	0.15267175572519084	0.15267175572519084	-6.396946564885496	39.0	137.4	-309.0
2017-08-15 12:15:44.266385	o	s	-0.004150390625	0.026123046875	1.01123046875	1.8625954198473282	1.8625954198473282	-7.419847328244275	39.0	137.4	-309.0
2017-08-15 12:15:44.283509	o	s	0.002197265625	0.003662109375	0.992919921875	-0.5190839694656488	-0.5190839694656488	-7.969465648854962	39.0	137.4	-309.0
2017-08-15 12:15:44.302823	o	s	-0.010498046875	0.01953125	0.996337890625	0.4580152671755725	0.4580152671755725	-5.877862595419847	39.0	137.4	-309.0
2017-08-15 12:15:44.319184	o	s	-0.00341796875	0.02099609375	0.998779296875	0.9312977099236641	0.9312977099236641	-4.320610687022901	39.0	137.4	-309.0
2017-08-15 12:15:44.335058	o	s	0.0	-0.009521484375	1.003662109375	1.9541984732824427	1.9541984732824427	-2.9160305343511452	39.0	137.4	-309.0
2017-08-15 12:15:44.352256	o	s	0.024169921875	-0.007568359375	1.031494140625	0.366412213740458	0.366412213740458	-3.099236641221374	39.0	137.4	-309.0
2017-08-15 12:15:44.372446	o	s	0.003173828125	0.026611328125	0.983642578125	0.24427480916030533	0.24427480916030533	-0.8396946564885496	39.0	137.4	-309.0
2017-08-15 12:15:44.393262	o	s	0.020751953125	0.02197265625	1.018798828125	0.12213740458015267	0.12213740458015267	-1.3435114503816794	39.0	137.4	-309.0
2017-08-15 12:15:44.413518	o	s	-0.001708984375	0.03125	0.984619140625	-0.366412213740458	-0.366412213740458	-3.3435114503816794	39.0	137.4	-309.0
2017-08-15 12:15:44.434254	o	s	-0.00634765625	0.007080078125	1.029541015625	3.7404580152671754	3.7404580152671754	-1.282442748091603	39.0	137.4	-309.0
2017-08-15 12:15:44.454293	o	s	-0.04052734375	-0.025146484375	1.005859375	0.04580152671755725	0.04580152671755725	-1.2061068702290076	39.0	137.4	-309.0
2017-08-15 12:15:44.475681	o	s	-0.0107421875	-0.003173828125	1.015380859375	-0.3053435114503817	-0.3053435114503817	-7.083969465648855	39.0	137.4	-309.0
2017-08-15 12:15:44.495493	o	s	-0.011962890625	0.009521484375	0.97998046875	0.16793893129770993	0.16793893129770993	-8.290076335877863	39.0	137.4	-309.0
2017-08-15 12:15:44.516085	o	s	0.01904296875	0.03369140625	1.000244140625	0.04580152671755725	0.04580152671755725	-5.4961832061068705	39.0	137.4	-309.0
2017-08-15 12:15:44.536615	o	s	-0.0078125	-0.00732421875	1.018310546875	0.22900763358778625	0.22900763358778625	-6.030534351145038	39.0	137.4	-309.0
2017-08-15 12:15:44.558476	o	s	0.006591796875	0.020263671875	0.998046875	0.061068702290076333	0.061068702290076333	0.1984732824427481	39.0	137.4	-309.0
2017-08-15 12:15:44.578107	o	s	0.003173828125	0.021240234375	1.001220703125	0.061068702290076333	0.061068702290076333	-2.16793893129771	39.0	137.4	-309.0
2017-08-15 12:15:44.599399	o	s	-0.011474609375	0.01611328125	1.000732421875	0.0916030534351145	0.0916030534351145	-0.7786259541984732	39.0	137.4	-309.0
2017-08-15 12:15:44.622288	o	s	-0.002197265625	0.0205078125	1.0048828125	3.877862595419847	3.877862595419847	-3.114503816793893	39.0	137.4	-309.0
2017-08-15 12:15:44.643740	o	s	0.00390625	0.020751953125	0.996337890625	-0.1984732824427481	-0.1984732824427481	-2.351145038167939	39.0	137.4	-309.0
2017-08-15 12:15:44.660980	o	s	0.00341796875	0.015869140625	1.0068359375	0.030534351145038167	0.030534351145038167	-2.946564885496183	39.0	137.4	-309.0
2017-08-15 12:15:44.677034	o	s	-0.00927734375	0.02001953125	0.999267578125	-0.0916030534351145	-0.0916030534351145	-0.030534351145038167	39.0	137.4	-309.0
2017-08-15 12:15:44.696583	o	s	0.00537109375	0.0185546875	1.005615234375	0.0916030534351145	0.0916030534351145	-0.061068702290076333	39.0	137.4	-309.0
2017-08-15 12:15:44.713478	o	s	0.0078125	0.019775390625	1.0068359375	-0.04580152671755725	-0.04580152671755725	-1.3893129770992367	39.0	137.4	-309.0
2017-08-15 12:15:44.731353	o	s	0.0	0.020263671875	1.00390625	-0.13740458015267176	-0.13740458015267176	-3.145038167938931	39.0	137.4	-309.0
2017-08-15 12:15:44.747399	o	s	-0.001220703125	0.01904296875	1.0029296875	0.24427480916030533	0.24427480916030533	-0.7480916030534351	39.0	137.4	-309.0
2017-08-15 12:15:44.763404	o	s	0.01806640625	0.027587890625	1.006103515625	-0.24427480916030533	-0.24427480916030533	-3.801526717557252	39.0	137.4	-309.0
2017-08-15 12:15:44.779233	o	s	0.01220703125	0.018798828125	1.006103515625	0.21374045801526717	0.21374045801526717	-2.2748091603053435	39.0	137.4	-309.0
2017-08-15 12:15:44.795384	o	s	0.00732421875	0.02392578125	1.006103515625	0.2748091603053435	0.2748091603053435	-1.1603053435114503	39.0	137.4	-309.0
2017-08-15 12:15:44.814877	o	s	0.005615234375	0.052978515625	0.990478515625	0.183206106870229	0.183206106870229	-5.572519083969466	39.0	137.4	-309.0
2017-08-15 12:15:44.836459	o	s	0.00634765625	0.02587890625	0.997802734375	-0.07633587786259542	-0.07633587786259542	-4.0	39.0	137.4	-309.0
2017-08-15 12:15:44.852359	o	s	0.008056640625	0.020751953125	1.014404296875	0.24427480916030533	0.24427480916030533	-6.656488549618321	39.0	137.4	-309.0
2017-08-15 12:15:44.869561	o	s	0.020751953125	0.034423828125	1.00732421875	-0.16793893129770993	-0.16793893129770993	-7.465648854961832	39.0	137.4	-309.0
2017-08-15 12:15:44.885503	o	s	-0.00341796875	0.0107421875	1.006103515625	0.3511450381679389	0.3511450381679389	-7.6183206106870225	39.0	137.4	-309.0
2017-08-15 12:15:44.901972	o	s	0.0107421875	0.01806640625	1.005859375	0.13740458015267176	0.13740458015267176	-5.633587786259542	39.0	137.4	-309.0
2017-08-15 12:15:44.918120	o	s	0.00732421875	0.022216796875	1.0078125	-0.015267175572519083	-0.015267175572519083	-5.694656488549619	39.0	137.4	-309.0
2017-08-15 12:15:44.934485	o	s	0.00048828125	0.02197265625	1.00048828125	0.21374045801526717	0.21374045801526717	-7.450381679389313	39.0	137.4	-309.0
2017-08-15 12:15:44.950835	o	s	0.00341796875	0.02197265625	1.00390625	0.0916030534351145	0.0916030534351145	-7.32824427480916	39.0	137.4	-309.0
2017-08-15 12:15:44.967202	o	s	0.005126953125	0.030517578125	1.009521484375	0.07633587786259542	0.07633587786259542	-8.106870229007633	39.0	137.4	-309.0
2017-08-15 12:15:44.983771	o	s	0.011474609375	0.035888671875	1.0078125	-3.8931297709923665	-3.8931297709923665	-10.0	39.0	137.4	-309.0
2017-08-15 12:15:44.999833	o	s	-0.0068359375	0.01220703125	0.997314453125	0.0916030534351145	0.0916030534351145	-8.15267175572519	39.0	137.4	-309.0
2017-08-15 12:15:45.016403	o	s	0.002685546875	0.017333984375	1.002685546875	0.0916030534351145	0.0916030534351145	-7.206106870229007	39.0	137.4	-309.0
2017-08-15 12:15:45.032511	o	s	-0.0068359375	0.0078125	1.000732421875	0.061068702290076333	0.061068702290076333	-3.3282442748091605	39.0	137.4	-309.0
2017-08-15 12:15:45.049305	o	s	-0.00927734375	0.01513671875	1.02685546875	0.1984732824427481	0.1984732824427481	-1.099236641221374	39.0	137.4	-309.0
2017-08-15 12:15:45.065297	o	s	-0.001220703125	0.013916015625	1.001220703125	-0.04580152671755725	-0.04580152671755725	0.22900763358778625	39.0	137.4	-309.0
2017-08-15 12:15:45.081379	o	s	0.001220703125	0.0185546875	1.00732421875	-0.24427480916030533	-0.24427480916030533	0.916030534351145	39.0	137.4	-309.0
2017-08-15 12:15:45.098612	o	s	0.00732421875	0.023681640625	1.0	0.21374045801526717	0.21374045801526717	0.9618320610687023	39.0	137.4	-309.0
2017-08-15 12:15:45.114606	o	s	0.0029296875	0.023193359375	1.00537109375	-0.2748091603053435	-0.2748091603053435	1.0076335877862594	39.0	137.4	-309.0
2017-08-15 12:15:45.130525	o	s	0.000244140625	0.017578125	0.998291015625	0.15267175572519084	0.15267175572519084	1.1145038167938932	39.0	137.4	-309.0
2017-08-15 12:15:45.146498	o	s	0.002685546875	0.021484375	1.000732421875	0.24427480916030533	0.24427480916030533	1.083969465648855	39.0	137.4	-309.0
2017-08-15 12:15:45.163213	o	s	0.0	0.0234375	1.00390625	0.21374045801526717	0.21374045801526717	0.9618320610687023	39.0	137.4	-309.0
2017-08-15 12:15:45.179113	o	s	-0.00048828125	0.017578125	1.005859375	-0.10687022900763359	-0.10687022900763359	0.8854961832061069	39.0	137.4	-309.0
2017-08-15 12:15:45.195128	o	s	0.00341796875	0.02294921875	1.006103515625	0.0916030534351145	0.0916030534351145	0.9007633587786259	39.0	137.4	-309.0
2017-08-15 12:15:45.211163	o	s	0.00146484375	0.0224609375	1.010986328125	0.0	0.0	1.0381679389312977	39.0	137.4	-309.0
2017-08-15 12:15:45.227146	o	s	0.00634765625	0.0185546875	1.001220703125	0.030534351145038167	0.030534351145038167	1.1603053435114503	39.0	137.4	-309.0
2017-08-15 12:15:45.243079	o	s	0.00244140625	0.024658203125	1.0068359375	0.04580152671755725	0.04580152671755725	0.8549618320610687	39.0	137.4	-309.0
2017-08-15 12:15:45.261295	o	s	0.00048828125	0.02197265625	1.0048828125	-0.061068702290076333	-0.061068702290076333	0.8244274809160306	39.0	137.4	-309.0
2017-08-15 12:15:45.280998	o	s	-0.00048828125	0.01806640625	1.005859375	0.1984732824427481	0.1984732824427481	0.916030534351145	39.0	137.4	-309.0
2017-08-15 12:15:45.300665	o	s	0.00048828125	0.017333984375	1.001953125	0.183206106870229	0.183206106870229	0.9770992366412213	39.0	137.4	-309.0
2017-08-15 12:15:45.320616	o	s	0.003173828125	0.019287109375	1.0107421875	0.061068702290076333	0.061068702290076333	1.0534351145038168	39.0	137.4	-309.0
2017-08-15 12:15:45.340313	o	s	-0.000244140625	0.018310546875	1.00341796875	0.061068702290076333	0.061068702290076333	0.9312977099236641	39.0	137.4	-309.0
2017-08-15 12:15:45.360334	o	s	0.004638671875	0.0205078125	0.994873046875	-0.21374045801526717	-0.21374045801526717	1.0534351145038168	39.0	137.4	-309.0
2017-08-15 12:15:45.380095	o	s	0.00146484375	0.02001953125	1.0068359375	-0.061068702290076333	-0.061068702290076333	1.1145038167938932	39.0	137.4	-309.0
2017-08-15 12:15:45.399829	o	s	0.002685546875	0.021240234375	1.001708984375	0.04580152671755725	0.04580152671755725	0.7633587786259542	39.0	137.4	-309.0
2017-08-15 12:15:45.419529	o	s	0.0068359375	0.023193359375	1.009765625	3.8625954198473282	3.8625954198473282	0.7480916030534351	39.0	137.4	-309.0
2017-08-15 12:15:45.439254	o	s	-0.029296875	0.023681640625	1.005859375	3.8931297709923665	3.8931297709923665	0.9770992366412213	39.0	137.4	-309.0
2017-08-15 12:15:45.460147	o	s	0.003173828125	0.0224609375	1.005615234375	0.16793893129770993	0.16793893129770993	1.1297709923664123	39.0	137.4	-309.0
2017-08-15 12:15:45.480299	o	s	0.002685546875	0.01953125	0.998779296875	0.04580152671755725	0.04580152671755725	1.0687022900763359	39.0	137.4	-309.0
2017-08-15 12:15:45.500045	o	s	0.00048828125	0.019775390625	1.00537109375	0.0	0.0	1.099236641221374	39.0	137.4	-309.0
2017-08-15 12:15:45.519847	o	s	0.000244140625	0.023681640625	0.999267578125	0.13740458015267176	0.13740458015267176	0.9312977099236641	39.0	137.4	-309.0
2017-08-15 12:15:45.539660	o	s	0.001708984375	0.017578125	1.003173828125	-0.030534351145038167	-0.030534351145038167	1.1603053435114503	39.0	137.4	-309.0
2017-08-15 12:15:45.559560	o	s	0.002197265625	0.021484375	1.006103515625	0.015267175572519083	0.015267175572519083	0.916030534351145	39.0	137.4	-309.0
2017-08-15 12:15:45.584314	o	s	0.001708984375	0.021484375	1.003173828125	-3.8931297709923665	-3.8931297709923665	0.916030534351145	39.0	137.4	-309.0
2017-08-15 12:15:45.605426	o	s	0.0009765625	0.01953125	1.005859375	-0.07633587786259542	-0.07633587786259542	1.083969465648855	39.0	137.4	-309.0
2017-08-15 12:15:45.625486	o	s	0.0029296875	0.023681640625	1.0029296875	-3.8931297709923665	-3.8931297709923665	0.9923664122137404	39.0	137.4	-309.0
2017-08-15 12:15:45.645149	o	s	0.001220703125	0.02197265625	1.000244140625	0.15267175572519084	0.15267175572519084	0.8854961832061069	39.0	137.4	-309.0
2017-08-15 12:15:45.664910	o	s	-0.001953125	0.0205078125	1.00537109375	-0.061068702290076333	-0.061068702290076333	1.0229007633587786	39.0	137.4	-309.0
2017-08-15 12:15:45.685132	o	s	0.00146484375	0.022216796875	1.00146484375	-0.061068702290076333	-0.061068702290076333	0.8549618320610687	39.0	137.4	-309.0
2017-08-15 12:15:45.704778	o	s	0.002685546875	0.021728515625	1.00146484375	0.10687022900763359	0.10687022900763359	0.9007633587786259	39.0	137.4	-309.0
2017-08-15 12:15:45.724992	o	s	0.008544921875	0.025390625	0.994140625	0.015267175572519083	0.015267175572519083	1.099236641221374	39.0	137.4	-309.0
2017-08-15 12:15:45.744569	o	s	-0.001953125	0.017822265625	0.994873046875	0.2748091603053435	0.2748091603053435	1.0381679389312977	39.0	137.4	-309.0
2017-08-15 12:15:45.764738	o	s	0.0009765625	0.0234375	1.00341796875	-0.0916030534351145	-0.0916030534351145	0.7480916030534351	39.0	137.4	-309.0
