Time	Position_lat	Position_lng	Accelerometer_x	Accelerometer_y	Accelerometer_z	Gyroscope_x	Gyroscope_y	Gyroscope_z	Magnetometer_x	Magnetometer_y	Magnetometer_z
2017-08-17 17:54:08.437556	lat	lng	0.028076171875	0.44873046875	0.896728515625	2.687022900763359	0.12213740458015267	0.8549618320610687	0.0	0.0	0.0
2017-08-17 17:54:08.469078	lat	lng	0.025146484375	0.44677734375	0.900634765625	2.4885496183206106	-0.2748091603053435	0.8702290076335878	0.0	0.0	0.0
2017-08-17 17:54:08.488734	lat	lng	0.026611328125	0.44580078125	0.898681640625	2.5343511450381677	0.183206106870229	1.0229007633587786	0.0	0.0	0.0
2017-08-17 17:54:08.507557	lat	lng	0.023681640625	0.44677734375	0.905029296875	2.4580152671755724	0.0916030534351145	0.7022900763358778	0.0	0.0	0.0
2017-08-17 17:54:08.525245	lat	lng	0.0224609375	0.446533203125	0.905517578125	2.4427480916030535	-0.2748091603053435	0.8702290076335878	0.0	0.0	0.0
2017-08-17 17:54:08.542911	lat	lng	0.027099609375	0.443603515625	0.905029296875	2.763358778625954	0.07633587786259542	0.8091603053435115	0.0	0.0	0.0
2017-08-17 17:54:08.559908	lat	lng	0.026123046875	0.445068359375	0.9052734375	2.7786259541984735	-0.07633587786259542	0.8549618320610687	0.0	0.0	0.0
2017-08-17 17:54:08.576910	lat	lng	0.028076171875	0.447998046875	0.90185546875	2.4885496183206106	0.10687022900763359	0.9312977099236641	0.0	0.0	0.0
2017-08-17 17:54:08.593915	lat	lng	0.0244140625	0.44091796875	0.908203125	2.7022900763358777	0.0916030534351145	0.7786259541984732	0.0	0.0	0.0
2017-08-17 17:54:08.610991	lat	lng	0.027099609375	0.447021484375	0.90673828125	2.595419847328244	0.1984732824427481	0.8702290076335878	0.0	0.0	0.0
2017-08-17 17:54:08.628332	lat	lng	0.023681640625	0.446044921875	0.8994140625	2.6717557251908395	-0.04580152671755725	0.8854961832061069	0.0	0.0	0.0
2017-08-17 17:54:08.645440	lat	lng	0.026611328125	0.446044921875	0.910888671875	2.50381679389313	0.07633587786259542	0.7480916030534351	0.0	0.0	0.0
2017-08-17 17:54:08.665260	lat	lng	0.020751953125	0.44580078125	0.906494140625	2.5343511450381677	0.07633587786259542	1.0229007633587786	0.0	0.0	0.0
2017-08-17 17:54:08.682179	lat	lng	0.0263671875	0.447509765625	0.902099609375	2.5343511450381677	-0.030534351145038167	0.8396946564885496	0.0	0.0	0.0
2017-08-17 17:54:08.700529	lat	lng	0.023681640625	0.446533203125	0.908447265625	2.6717557251908395	0.030534351145038167	0.6106870229007634	0.0	0.0	0.0
2017-08-17 17:54:08.717369	lat	lng	0.019287109375	0.447509765625	0.909423828125	2.549618320610687	-0.061068702290076333	0.549618320610687	0.0	0.0	0.0
2017-08-17 17:54:08.735156	lat	lng	0.024658203125	0.447998046875	0.905029296875	2.6106870229007635	0.030534351145038167	0.9007633587786259	0.0	0.0	0.0
2017-08-17 17:54:08.752080	lat	lng	0.02685546875	0.446044921875	0.90673828125	2.595419847328244	-0.15267175572519084	0.8702290076335878	0.0	0.0	0.0
2017-08-17 17:54:08.769695	lat	lng	0.027587890625	0.446044921875	0.908935546875	2.763358778625954	0.16793893129770993	0.8396946564885496	0.0	0.0	0.0
2017-08-17 17:54:08.787001	lat	lng	0.0234375	0.4453125	0.90869140625	2.564885496183206	0.030534351145038167	0.6106870229007634	0.0	0.0	0.0
2017-08-17 17:54:08.804337	lat	lng	0.028076171875	0.44384765625	0.904052734375	2.717557251908397	-0.07633587786259542	0.8549618320610687	0.0	0.0	0.0
2017-08-17 17:54:08.821739	lat	lng	0.02392578125	0.4482421875	0.90625	2.50381679389313	0.015267175572519083	0.7938931297709924	0.0	0.0	0.0
2017-08-17 17:54:08.839323	lat	lng	0.025146484375	0.444091796875	0.8994140625	2.4427480916030535	-0.030534351145038167	0.8854961832061069	0.0	0.0	0.0
2017-08-17 17:54:08.856727	lat	lng	0.0263671875	0.44580078125	0.904052734375	2.7022900763358777	0.061068702290076333	0.916030534351145	0.0	0.0	0.0
2017-08-17 17:54:08.874239	lat	lng	0.023193359375	0.4443359375	0.90673828125	2.7938931297709924	0.0916030534351145	0.732824427480916	0.0	0.0	0.0
2017-08-17 17:54:08.891564	lat	lng	0.031494140625	0.441650390625	0.910888671875	2.717557251908397	0.12213740458015267	0.8854961832061069	0.0	0.0	0.0
2017-08-17 17:54:08.910263	lat	lng	0.023681640625	0.4462890625	0.906005859375	2.564885496183206	0.183206106870229	1.0229007633587786	0.0	0.0	0.0
2017-08-17 17:54:08.926972	lat	lng	0.022705078125	0.447509765625	0.87841796875	2.7022900763358777	0.07633587786259542	0.8244274809160306	0.0	0.0	0.0
2017-08-17 17:54:08.943716	lat	lng	0.025146484375	0.446044921875	0.910400390625	2.7022900763358777	0.0916030534351145	0.7938931297709924	0.0	0.0	0.0
2017-08-17 17:54:08.960415	lat	lng	0.023193359375	0.4453125	0.902587890625	2.717557251908397	-0.10687022900763359	0.7480916030534351	0.0	0.0	0.0
2017-08-17 17:54:08.977079	lat	lng	0.024658203125	0.4453125	0.8759765625	2.4122137404580153	0.21374045801526717	0.8396946564885496	0.0	0.0	0.0
2017-08-17 17:54:08.993783	lat	lng	0.025390625	0.443603515625	0.906982421875	2.7480916030534353	-0.24427480916030533	1.0076335877862594	0.0	0.0	0.0
2017-08-17 17:54:09.011958	lat	lng	0.024169921875	0.44873046875	0.90625	2.595419847328244	0.07633587786259542	0.8854961832061069	0.0	0.0	0.0
2017-08-17 17:54:09.038167	lat	lng	0.022216796875	0.445556640625	0.902587890625	2.4885496183206106	-0.061068702290076333	0.7480916030534351	0.0	0.0	0.0
2017-08-17 17:54:09.059158	lat	lng	0.02490234375	0.447021484375	0.896240234375	2.4122137404580153	0.12213740458015267	0.9312977099236641	0.0	0.0	0.0
2017-08-17 17:54:09.081607	lat	lng	0.02685546875	0.4482421875	0.903076171875	2.351145038167939	-0.015267175572519083	0.7938931297709924	0.0	0.0	0.0
2017-08-17 17:54:09.104351	lat	lng	0.028564453125	0.447998046875	0.935302734375	2.50381679389313	-0.12213740458015267	0.9465648854961832	0.0	0.0	0.0
2017-08-17 17:54:09.126004	lat	lng	0.02685546875	0.44873046875	0.905029296875	2.5801526717557253	3.8931297709923665	1.0534351145038168	0.0	0.0	0.0
2017-08-17 17:54:09.148123	lat	lng	0.022216796875	0.445556640625	0.89892578125	2.5801526717557253	0.030534351145038167	0.8244274809160306	0.0	0.0	0.0
2017-08-17 17:54:09.178542	lat	lng	0.02490234375	0.447265625	0.906494140625	2.595419847328244	-0.15267175572519084	0.8396946564885496	0.0	0.0	0.0
2017-08-17 17:54:09.202522	lat	lng	0.01904296875	0.444580078125	0.90283203125	2.564885496183206	0.0916030534351145	0.8244274809160306	0.0	0.0	0.0
2017-08-17 17:54:09.225189	lat	lng	0.02392578125	0.444580078125	0.89990234375	2.5801526717557253	-0.24427480916030533	0.8702290076335878	0.0	0.0	0.0
2017-08-17 17:54:09.248663	lat	lng	0.022216796875	0.442138671875	0.898681640625	2.4427480916030535	-0.030534351145038167	0.916030534351145	0.0	0.0	0.0
2017-08-17 17:54:09.272772	lat	lng	0.0244140625	0.443603515625	0.935546875	2.4122137404580153	-0.2595419847328244	0.8854961832061069	0.0	0.0	0.0
2017-08-17 17:54:09.295958	lat	lng	0.024658203125	0.44677734375	0.89990234375	2.5343511450381677	0.061068702290076333	0.732824427480916	0.0	0.0	0.0
2017-08-17 17:54:09.321731	lat	lng	0.02587890625	0.44873046875	0.906494140625	2.7480916030534353	0.22900763358778625	0.6717557251908397	0.0	0.0	0.0
2017-08-17 17:54:09.342158	lat	lng	0.025634765625	0.447998046875	0.905517578125	2.6259541984732824	-0.1984732824427481	0.6717557251908397	0.0	0.0	0.0
2017-08-17 17:54:09.362460	lat	lng	0.02197265625	0.4462890625	0.9033203125	2.564885496183206	3.8931297709923665	0.8549618320610687	0.0	0.0	0.0
2017-08-17 17:54:09.382873	lat	lng	0.0224609375	0.443115234375	0.90771484375	2.7022900763358777	-0.061068702290076333	0.8244274809160306	0.0	0.0	0.0
2017-08-17 17:54:09.404819	lat	lng	0.02490234375	0.44384765625	0.905029296875	2.4122137404580153	-0.015267175572519083	0.9465648854961832	0.0	0.0	0.0
2017-08-17 17:54:09.421411	lat	lng	0.026123046875	0.447998046875	0.909912109375	2.6106870229007635	-0.12213740458015267	0.8702290076335878	0.0	0.0	0.0
2017-08-17 17:54:09.440740	lat	lng	0.024658203125	0.445068359375	0.904296875	2.549618320610687	-0.030534351145038167	0.9007633587786259	0.0	0.0	0.0
2017-08-17 17:54:09.459968	lat	lng	0.027099609375	0.44775390625	0.90869140625	2.6106870229007635	-0.04580152671755725	0.8396946564885496	0.0	0.0	0.0
2017-08-17 17:54:09.479637	lat	lng	0.027099609375	0.447265625	0.904296875	2.50381679389313	0.030534351145038167	0.8702290076335878	0.0	0.0	0.0
2017-08-17 17:54:09.498823	lat	lng	0.02685546875	0.4423828125	0.90087890625	2.4732824427480917	0.07633587786259542	0.8854961832061069	0.0	0.0	0.0
2017-08-17 17:54:09.517504	lat	lng	0.026611328125	0.445068359375	0.90625	2.564885496183206	-0.22900763358778625	0.6717557251908397	0.0	0.0	0.0
2017-08-17 17:54:09.536903	lat	lng	0.022705078125	0.4462890625	0.8984375	2.519083969465649	-0.04580152671755725	0.8244274809160306	0.0	0.0	0.0
2017-08-17 17:54:09.553450	lat	lng	0.023681640625	0.44482421875	0.904296875	2.595419847328244	-0.0916030534351145	0.7938931297709924	0.0	0.0	0.0
2017-08-17 17:54:09.574115	lat	lng	0.02197265625	0.44873046875	0.911865234375	2.687022900763359	0.061068702290076333	0.8854961832061069	0.0	0.0	0.0
2017-08-17 17:54:09.593236	lat	lng	0.026123046875	0.447509765625	0.905029296875	2.519083969465649	0.07633587786259542	0.7480916030534351	0.0	0.0	0.0
2017-08-17 17:54:09.617373	lat	lng	0.02685546875	0.44677734375	0.897705078125	2.8091603053435112	0.015267175572519083	1.1297709923664123	0.0	0.0	0.0
2017-08-17 17:54:09.635812	lat	lng	0.0205078125	0.44873046875	0.903076171875	2.6717557251908395	3.8931297709923665	1.0229007633587786	0.0	0.0	0.0
2017-08-17 17:54:09.653545	lat	lng	0.02685546875	0.448486328125	0.91162109375	2.4732824427480917	0.07633587786259542	0.8091603053435115	0.0	0.0	0.0
2017-08-17 17:54:09.671868	lat	lng	0.026611328125	0.44775390625	0.907958984375	2.5343511450381677	-0.24427480916030533	0.9312977099236641	0.0	0.0	0.0
2017-08-17 17:54:09.689400	lat	lng	0.025634765625	0.444580078125	0.90087890625	2.6106870229007635	0.32061068702290074	1.099236641221374	0.0	0.0	0.0
2017-08-17 17:54:09.707063	lat	lng	0.020263671875	0.449951171875	0.905517578125	2.7022900763358777	-0.07633587786259542	0.9923664122137404	0.0	0.0	0.0
2017-08-17 17:54:09.724645	lat	lng	0.0263671875	0.446533203125	0.904541015625	2.4885496183206106	-0.061068702290076333	0.8702290076335878	0.0	0.0	0.0
2017-08-17 17:54:09.742037	lat	lng	0.029296875	0.451171875	0.908203125	2.366412213740458	-0.3969465648854962	0.916030534351145	0.0	0.0	0.0
2017-08-17 17:54:09.760919	lat	lng	0.025390625	0.444580078125	0.90478515625	2.549618320610687	0.15267175572519084	0.7786259541984732	0.0	0.0	0.0
2017-08-17 17:54:09.778594	lat	lng	0.022705078125	0.44482421875	0.907470703125	2.6412213740458017	0.10687022900763359	0.7175572519083969	0.0	0.0	0.0
2017-08-17 17:54:09.796450	lat	lng	0.025390625	0.448486328125	0.908203125	2.50381679389313	-0.10687022900763359	0.8549618320610687	0.0	0.0	0.0
2017-08-17 17:54:09.813590	lat	lng	0.025146484375	0.44873046875	0.899658203125	2.4427480916030535	-0.16793893129770993	0.8549618320610687	0.0	0.0	0.0
2017-08-17 17:54:09.836679	lat	lng	0.028076171875	0.449462890625	0.901611328125	2.732824427480916	0.0	0.7480916030534351	0.0	0.0	0.0
2017-08-17 17:54:09.855424	lat	lng	0.025634765625	0.441650390625	0.9052734375	2.687022900763359	0.0916030534351145	1.0229007633587786	0.0	0.0	0.0
2017-08-17 17:54:09.874752	lat	lng	0.02685546875	0.4482421875	0.907958984375	2.5801526717557253	0.1984732824427481	0.8091603053435115	0.0	0.0	0.0
2017-08-17 17:54:09.893774	lat	lng	0.026611328125	0.4462890625	0.90185546875	2.4732824427480917	0.061068702290076333	0.7633587786259542	0.0	0.0	0.0
2017-08-17 17:54:09.911064	lat	lng	0.02685546875	0.4462890625	0.900390625	2.549618320610687	0.21374045801526717	0.9923664122137404	0.0	0.0	0.0
2017-08-17 17:54:09.928463	lat	lng	0.026611328125	0.44677734375	0.90869140625	2.6412213740458017	-0.4122137404580153	0.8244274809160306	0.0	0.0	0.0
2017-08-17 17:54:09.945510	lat	lng	0.0263671875	0.447509765625	0.904541015625	2.549618320610687	-0.2748091603053435	0.9618320610687023	0.0	0.0	0.0
2017-08-17 17:54:09.962694	lat	lng	0.028076171875	0.448974609375	0.90576171875	2.6259541984732824	0.2748091603053435	0.7022900763358778	0.0	0.0	0.0
2017-08-17 17:54:09.979462	lat	lng	0.025390625	0.447265625	0.9013671875	2.5801526717557253	0.0	0.8396946564885496	0.0	0.0	0.0
2017-08-17 17:54:09.997179	lat	lng	0.022705078125	0.447021484375	0.90283203125	2.5801526717557253	0.07633587786259542	0.8244274809160306	0.0	0.0	0.0
2017-08-17 17:54:10.013792	lat	lng	0.025634765625	0.44677734375	0.909423828125	2.50381679389313	-0.10687022900763359	0.6412213740458015	0.0	0.0	0.0
2017-08-17 17:54:10.030668	lat	lng	0.022705078125	0.448486328125	0.902587890625	2.4885496183206106	-0.1984732824427481	0.8854961832061069	0.0	0.0	0.0
2017-08-17 17:54:10.047361	lat	lng	0.022216796875	0.447021484375	0.912353515625	2.595419847328244	-0.13740458015267176	0.8549618320610687	0.0	0.0	0.0
2017-08-17 17:54:10.064783	lat	lng	0.022216796875	0.446533203125	0.90234375	2.7786259541984735	-0.04580152671755725	0.8396946564885496	0.0	0.0	0.0
2017-08-17 17:54:10.081833	lat	lng	0.021484375	0.447998046875	0.90087890625	2.717557251908397	0.04580152671755725	0.6564885496183206	0.0	0.0	0.0
2017-08-17 17:54:10.099156	lat	lng	0.026123046875	0.447265625	0.9072265625	2.50381679389313	-0.15267175572519084	0.9007633587786259	0.0	0.0	0.0
2017-08-17 17:54:10.117870	lat	lng	0.02294921875	0.446044921875	0.90771484375	2.519083969465649	-0.15267175572519084	1.0076335877862594	0.0	0.0	0.0
2017-08-17 17:54:10.140320	lat	lng	0.0224609375	0.44970703125	0.901611328125	2.8396946564885495	-0.10687022900763359	0.916030534351145	0.0	0.0	0.0
2017-08-17 17:54:10.161573	lat	lng	0.025146484375	0.445068359375	0.9033203125	2.717557251908397	-0.22900763358778625	0.9465648854961832	0.0	0.0	0.0
2017-08-17 17:54:10.182861	lat	lng	0.02392578125	0.4482421875	0.908935546875	2.595419847328244	3.8931297709923665	0.7633587786259542	0.0	0.0	0.0
2017-08-17 17:54:10.204249	lat	lng	0.026611328125	0.447265625	0.9013671875	2.564885496183206	-0.015267175572519083	1.0229007633587786	0.0	0.0	0.0
2017-08-17 17:54:10.226386	lat	lng	0.025634765625	0.446533203125	0.90625	2.50381679389313	0.0	0.8702290076335878	0.0	0.0	0.0
2017-08-17 17:54:10.247773	lat	lng	0.025634765625	0.44775390625	0.909423828125	2.3969465648854964	-0.07633587786259542	0.9312977099236641	0.0	0.0	0.0
2017-08-17 17:54:10.269118	lat	lng	0.024169921875	0.446533203125	0.903564453125	2.717557251908397	-0.12213740458015267	1.0076335877862594	0.0	0.0	0.0
2017-08-17 17:54:10.290489	lat	lng	0.025146484375	0.445556640625	0.9072265625	2.50381679389313	-0.0916030534351145	0.6564885496183206	0.0	0.0	0.0
2017-08-17 17:54:10.311267	lat	lng	0.0244140625	0.446044921875	0.90478515625	2.4122137404580153	0.07633587786259542	0.7786259541984732	0.0	0.0	0.0
2017-08-17 17:54:10.332009	lat	lng	0.032470703125	0.446044921875	0.902099609375	2.5343511450381677	0.21374045801526717	0.7786259541984732	0.0	0.0	0.0
2017-08-17 17:54:10.352861	lat	lng	0.024169921875	0.443115234375	0.875244140625	2.50381679389313	-0.10687022900763359	0.6870229007633588	0.0	0.0	0.0
2017-08-17 17:54:10.373671	lat	lng	0.02783203125	0.44775390625	0.907470703125	2.5801526717557253	0.12213740458015267	0.7938931297709924	0.0	0.0	0.0
2017-08-17 17:54:10.397115	lat	lng	0.0283203125	0.447998046875	0.906494140625	2.6717557251908395	0.04580152671755725	0.8091603053435115	0.0	0.0	0.0
2017-08-17 17:54:10.418701	lat	lng	0.025634765625	0.44775390625	0.906982421875	2.6106870229007635	-0.22900763358778625	0.8549618320610687	0.0	0.0	0.0
2017-08-17 17:54:10.440489	lat	lng	0.023681640625	0.44482421875	0.906982421875	2.3053435114503817	-0.2748091603053435	0.7480916030534351	0.0	0.0	0.0
2017-08-17 17:54:10.463225	lat	lng	0.02783203125	0.44384765625	0.906005859375	2.4732824427480917	-0.04580152671755725	0.9923664122137404	0.0	0.0	0.0
2017-08-17 17:54:10.488872	lat	lng	0.026611328125	0.44091796875	0.904052734375	2.381679389312977	-0.3511450381679389	0.7480916030534351	0.0	0.0	0.0
2017-08-17 17:54:10.511061	lat	lng	0.02734375	0.44873046875	0.907958984375	2.4580152671755724	0.061068702290076333	0.9312977099236641	0.0	0.0	0.0
2017-08-17 17:54:10.533021	lat	lng	0.02294921875	0.4453125	0.910400390625	2.3053435114503817	0.04580152671755725	0.7633587786259542	0.0	0.0	0.0
2017-08-17 17:54:10.555400	lat	lng	0.024658203125	0.445556640625	0.907470703125	2.6564885496183206	0.0	0.9007633587786259	0.0	0.0	0.0
2017-08-17 17:54:10.577954	lat	lng	0.02294921875	0.446533203125	0.911376953125	2.5801526717557253	-0.2748091603053435	0.7786259541984732	0.0	0.0	0.0
2017-08-17 17:54:10.600935	lat	lng	0.02294921875	0.446533203125	0.910400390625	2.6412213740458017	-0.04580152671755725	0.7786259541984732	0.0	0.0	0.0
2017-08-17 17:54:10.622526	lat	lng	0.0263671875	0.449462890625	0.93505859375	2.549618320610687	-0.16793893129770993	0.8091603053435115	0.0	0.0	0.0
2017-08-17 17:54:10.644048	lat	lng	0.028564453125	0.44384765625	0.902099609375	2.4732824427480917	0.1984732824427481	0.7480916030534351	0.0	0.0	0.0
2017-08-17 17:54:10.665957	lat	lng	0.03076171875	0.4482421875	0.91162109375	2.4427480916030535	-0.0916030534351145	0.8702290076335878	0.0	0.0	0.0
2017-08-17 17:54:10.690926	lat	lng	0.02783203125	0.44580078125	0.899169921875	2.5801526717557253	0.2595419847328244	0.6106870229007634	0.0	0.0	0.0
2017-08-17 17:54:10.719983	lat	lng	0.025390625	0.4462890625	0.90380859375	2.4580152671755724	0.0916030534351145	0.6259541984732825	0.0	0.0	0.0
2017-08-17 17:54:10.741935	lat	lng	0.0244140625	0.4482421875	0.906982421875	2.519083969465649	0.13740458015267176	1.0076335877862594	0.0	0.0	0.0
2017-08-17 17:54:10.767831	lat	lng	0.021240234375	0.445068359375	0.900390625	2.564885496183206	-0.13740458015267176	0.8244274809160306	0.0	0.0	0.0
2017-08-17 17:54:10.792300	lat	lng	0.0234375	0.4443359375	0.8955078125	2.6564885496183206	0.04580152671755725	0.9312977099236641	0.0	0.0	0.0
2017-08-17 17:54:10.815589	lat	lng	0.024658203125	0.443359375	0.898193359375	2.6412213740458017	-0.2900763358778626	0.7938931297709924	0.0	0.0	0.0
2017-08-17 17:54:10.839024	lat	lng	0.022216796875	0.444580078125	0.910400390625	2.381679389312977	0.366412213740458	0.7175572519083969	0.0	0.0	0.0
2017-08-17 17:54:10.864060	lat	lng	0.025146484375	0.44677734375	0.8984375	2.5343511450381677	-0.15267175572519084	0.8396946564885496	0.0	0.0	0.0
2017-08-17 17:54:10.889537	lat	lng	0.02392578125	0.447021484375	0.88037109375	2.50381679389313	3.8931297709923665	0.8091603053435115	0.0	0.0	0.0
2017-08-17 17:54:10.915705	lat	lng	0.022705078125	0.443359375	0.90673828125	2.564885496183206	-0.15267175572519084	0.7480916030534351	0.0	0.0	0.0
2017-08-17 17:54:10.938101	lat	lng	0.02587890625	0.44287109375	0.904052734375	2.7480916030534353	-0.04580152671755725	0.7938931297709924	0.0	0.0	0.0
2017-08-17 17:54:10.969545	lat	lng	0.029052734375	0.443359375	0.90234375	2.7938931297709924	-0.2595419847328244	0.8702290076335878	0.0	0.0	0.0
2017-08-17 17:54:10.996209	lat	lng	0.024169921875	0.446044921875	0.901611328125	2.6412213740458017	0.21374045801526717	0.732824427480916	0.0	0.0	0.0
2017-08-17 17:54:11.025846	lat	lng	0.031494140625	0.447021484375	0.90478515625	2.7938931297709924	-0.061068702290076333	0.9007633587786259	0.0	0.0	0.0
2017-08-17 17:54:11.042675	lat	lng	0.02099609375	0.44384765625	0.90283203125	2.366412213740458	0.04580152671755725	0.6717557251908397	0.0	0.0	0.0
2017-08-17 17:54:11.059922	lat	lng	0.02880859375	0.4482421875	0.904541015625	2.6717557251908395	-0.04580152671755725	1.0381679389312977	0.0	0.0	0.0
2017-08-17 17:54:11.076812	lat	lng	0.027099609375	0.446533203125	0.9072265625	2.900763358778626	-0.10687022900763359	0.7786259541984732	0.0	0.0	0.0
2017-08-17 17:54:11.094630	lat	lng	0.021484375	0.44482421875	0.910400390625	2.4732824427480917	-3.9083969465648853	0.7480916030534351	0.0	0.0	0.0
2017-08-17 17:54:11.116086	lat	lng	0.02587890625	0.447509765625	0.900146484375	2.519083969465649	-0.21374045801526717	0.7786259541984732	0.0	0.0	0.0
2017-08-17 17:54:11.133345	lat	lng	0.024169921875	0.446533203125	0.907958984375	2.595419847328244	0.015267175572519083	0.7938931297709924	0.0	0.0	0.0
2017-08-17 17:54:11.150345	lat	lng	0.0263671875	0.447509765625	0.90380859375	2.6564885496183206	-0.04580152671755725	0.8091603053435115	0.0	0.0	0.0
2017-08-17 17:54:11.168547	lat	lng	0.02685546875	0.4462890625	0.90478515625	2.8396946564885495	-0.030534351145038167	0.9465648854961832	0.0	0.0	0.0
2017-08-17 17:54:11.187661	lat	lng	0.02099609375	0.447265625	0.901123046875	2.50381679389313	0.10687022900763359	0.9923664122137404	0.0	0.0	0.0
2017-08-17 17:54:11.207054	lat	lng	0.021240234375	0.446044921875	0.90869140625	2.564885496183206	-0.030534351145038167	0.916030534351145	0.0	0.0	0.0
2017-08-17 17:54:11.225332	lat	lng	0.023193359375	0.44580078125	0.904541015625	2.4732824427480917	-0.2748091603053435	0.732824427480916	0.0	0.0	0.0
2017-08-17 17:54:11.242464	lat	lng	0.025146484375	0.446044921875	0.904296875	2.687022900763359	-0.1984732824427481	1.0229007633587786	0.0	0.0	0.0
2017-08-17 17:54:11.259535	lat	lng	0.024169921875	0.4453125	0.90283203125	2.687022900763359	-0.183206106870229	0.8396946564885496	0.0	0.0	0.0
2017-08-17 17:54:11.276024	lat	lng	0.02783203125	0.444580078125	0.905029296875	2.595419847328244	-0.015267175572519083	0.8702290076335878	0.0	0.0	0.0
2017-08-17 17:54:11.292978	lat	lng	0.027099609375	0.44677734375	0.904052734375	2.2595419847328246	0.2595419847328244	0.8396946564885496	0.0	0.0	0.0
2017-08-17 17:54:11.309313	lat	lng	0.025634765625	0.44580078125	0.876220703125	2.33587786259542	-0.13740458015267176	0.8396946564885496	0.0	0.0	0.0
2017-08-17 17:54:11.325633	lat	lng	0.0283203125	0.445556640625	0.90478515625	2.3053435114503817	0.0	0.8549618320610687	0.0	0.0	0.0
2017-08-17 17:54:11.342029	lat	lng	0.025146484375	0.445068359375	0.912841796875	2.549618320610687	0.0916030534351145	0.7938931297709924	0.0	0.0	0.0
2017-08-17 17:54:11.358153	lat	lng	0.028564453125	0.446533203125	0.908203125	2.50381679389313	-0.32061068702290074	0.916030534351145	0.0	0.0	0.0
2017-08-17 17:54:11.374617	lat	lng	0.025146484375	0.44580078125	0.908203125	2.4427480916030535	-0.10687022900763359	0.9007633587786259	0.0	0.0	0.0
2017-08-17 17:54:11.390869	lat	lng	0.023193359375	0.449462890625	0.9111328125	2.3206106870229006	0.12213740458015267	0.9465648854961832	0.0	0.0	0.0
2017-08-17 17:54:11.407398	lat	lng	0.025390625	0.448486328125	0.910888671875	2.4122137404580153	-0.030534351145038167	0.8396946564885496	0.0	0.0	0.0
2017-08-17 17:54:11.423996	lat	lng	0.026123046875	0.447021484375	0.904052734375	2.6412213740458017	0.183206106870229	0.9923664122137404	0.0	0.0	0.0
2017-08-17 17:54:11.440870	lat	lng	0.0263671875	0.4423828125	0.9111328125	2.549618320610687	-0.1984732824427481	0.8854961832061069	0.0	0.0	0.0
2017-08-17 17:54:11.457745	lat	lng	0.02685546875	0.447998046875	0.9091796875	2.4427480916030535	0.030534351145038167	1.0229007633587786	0.0	0.0	0.0
2017-08-17 17:54:11.474892	lat	lng	0.0244140625	0.44580078125	0.909423828125	2.717557251908397	0.22900763358778625	0.9923664122137404	0.0	0.0	0.0
2017-08-17 17:54:11.491803	lat	lng	0.02734375	0.449951171875	0.906005859375	2.4732824427480917	-0.030534351145038167	0.8244274809160306	0.0	0.0	0.0
2017-08-17 17:54:11.508668	lat	lng	0.02392578125	0.444580078125	0.907470703125	2.4580152671755724	-0.2900763358778626	0.9923664122137404	0.0	0.0	0.0
2017-08-17 17:54:11.525614	lat	lng	0.02392578125	0.447021484375	0.906982421875	2.732824427480916	0.15267175572519084	1.1145038167938932	0.0	0.0	0.0
2017-08-17 17:54:11.542685	lat	lng	0.02490234375	0.451416015625	0.90625	2.595419847328244	-0.16793893129770993	0.9312977099236641	0.0	0.0	0.0
2017-08-17 17:54:11.559585	lat	lng	0.02490234375	0.444091796875	0.908447265625	2.5801526717557253	-0.0916030534351145	0.7480916030534351	0.0	0.0	0.0
2017-08-17 17:54:11.576638	lat	lng	0.0244140625	0.4453125	0.911865234375	2.6717557251908395	-0.21374045801526717	0.8244274809160306	0.0	0.0	0.0
2017-08-17 17:54:11.593216	lat	lng	0.0234375	0.448974609375	0.908203125	2.4122137404580153	-0.07633587786259542	0.8854961832061069	0.0	0.0	0.0
2017-08-17 17:54:11.610304	lat	lng	0.021484375	0.447998046875	0.906005859375	2.6717557251908395	-0.1984732824427481	0.8244274809160306	0.0	0.0	0.0
2017-08-17 17:54:11.627161	lat	lng	0.02392578125	0.445556640625	0.91455078125	2.5801526717557253	-3.8931297709923665	0.5190839694656488	0.0	0.0	0.0
2017-08-17 17:54:11.643909	lat	lng	0.023193359375	0.445068359375	0.908447265625	2.6412213740458017	-0.04580152671755725	0.8702290076335878	0.0	0.0	0.0
2017-08-17 17:54:11.660330	lat	lng	0.028076171875	0.445556640625	0.912353515625	2.519083969465649	0.04580152671755725	0.8854961832061069	0.0	0.0	0.0
2017-08-17 17:54:11.676712	lat	lng	0.026123046875	0.447021484375	0.90673828125	2.519083969465649	-0.07633587786259542	0.9465648854961832	0.0	0.0	0.0
2017-08-17 17:54:11.693066	lat	lng	0.0244140625	0.443603515625	0.89990234375	2.717557251908397	0.04580152671755725	0.8091603053435115	0.0	0.0	0.0
2017-08-17 17:54:11.709472	lat	lng	0.026123046875	0.444091796875	0.90576171875	2.5343511450381677	-0.07633587786259542	0.7938931297709924	0.0	0.0	0.0
2017-08-17 17:54:11.725976	lat	lng	0.02587890625	0.44482421875	0.901611328125	2.717557251908397	-0.0916030534351145	0.6717557251908397	0.0	0.0	0.0
2017-08-17 17:54:11.746883	lat	lng	0.023193359375	0.450439453125	0.906494140625	2.8702290076335877	-0.16793893129770993	0.916030534351145	0.0	0.0	0.0
2017-08-17 17:54:11.768720	lat	lng	0.026123046875	0.44775390625	0.9345703125	2.427480916030534	0.030534351145038167	0.7480916030534351	0.0	0.0	0.0
2017-08-17 17:54:11.789366	lat	lng	0.023681640625	0.446044921875	0.908447265625	2.595419847328244	0.04580152671755725	0.7022900763358778	0.0	0.0	0.0
2017-08-17 17:54:11.809729	lat	lng	0.02685546875	0.444580078125	0.9033203125	2.6412213740458017	-3.9083969465648853	0.8396946564885496	0.0	0.0	0.0
2017-08-17 17:54:11.830403	lat	lng	0.025390625	0.44677734375	0.90283203125	2.8091603053435112	-0.10687022900763359	0.7175572519083969	0.0	0.0	0.0
2017-08-17 17:54:11.850605	lat	lng	0.022705078125	0.442626953125	0.89453125	2.6564885496183206	-0.04580152671755725	0.8396946564885496	0.0	0.0	0.0
2017-08-17 17:54:11.870788	lat	lng	0.028564453125	0.447265625	0.907470703125	2.4885496183206106	0.04580152671755725	0.732824427480916	0.0	0.0	0.0
2017-08-17 17:54:11.890968	lat	lng	0.025390625	0.448486328125	0.904296875	2.4580152671755724	-0.061068702290076333	0.916030534351145	0.0	0.0	0.0
2017-08-17 17:54:11.911167	lat	lng	0.0263671875	0.4482421875	0.905517578125	2.6717557251908395	0.015267175572519083	0.7480916030534351	0.0	0.0	0.0
2017-08-17 17:54:11.931335	lat	lng	0.0244140625	0.447998046875	0.9052734375	2.7022900763358777	0.0	0.7480916030534351	0.0	0.0	0.0
2017-08-17 17:54:11.951569	lat	lng	0.024658203125	0.440673828125	0.899658203125	2.687022900763359	0.07633587786259542	0.9312977099236641	0.0	0.0	0.0
2017-08-17 17:54:11.972285	lat	lng	0.02099609375	0.447021484375	0.904296875	2.8396946564885495	-0.04580152671755725	0.7938931297709924	0.0	0.0	0.0
2017-08-17 17:54:11.992466	lat	lng	0.024169921875	0.445068359375	0.8994140625	2.4885496183206106	-3.9083969465648853	1.0229007633587786	0.0	0.0	0.0
2017-08-17 17:54:12.013117	lat	lng	0.02587890625	0.44677734375	0.902099609375	2.6564885496183206	-0.10687022900763359	0.8396946564885496	0.0	0.0	0.0
2017-08-17 17:54:12.033316	lat	lng	0.02587890625	0.445556640625	0.90869140625	2.732824427480916	-0.183206106870229	0.732824427480916	0.0	0.0	0.0
2017-08-17 17:54:12.058550	lat	lng	0.02001953125	0.447021484375	0.906494140625	2.381679389312977	-0.10687022900763359	0.9312977099236641	0.0	0.0	0.0
2017-08-17 17:54:12.082099	lat	lng	0.02490234375	0.44482421875	0.905517578125	2.8091603053435112	0.061068702290076333	1.2213740458015268	0.0	0.0	0.0
2017-08-17 17:54:12.106748	lat	lng	0.0234375	0.44580078125	0.879150390625	2.8244274809160306	-0.12213740458015267	0.8702290076335878	0.0	0.0	0.0
2017-08-17 17:54:12.129722	lat	lng	0.02783203125	0.450927734375	0.908447265625	2.4885496183206106	-0.13740458015267176	1.0229007633587786	0.0	0.0	0.0
2017-08-17 17:54:12.149123	lat	lng	0.025146484375	0.443359375	0.901123046875	2.6106870229007635	-0.061068702290076333	0.8396946564885496	0.0	0.0	0.0
2017-08-17 17:54:12.167173	lat	lng	0.025634765625	0.446044921875	0.90478515625	2.687022900763359	0.015267175572519083	0.7633587786259542	0.0	0.0	0.0
2017-08-17 17:54:12.185902	lat	lng	0.025390625	0.44873046875	0.9033203125	2.6717557251908395	3.8931297709923665	0.8549618320610687	0.0	0.0	0.0
2017-08-17 17:54:12.203725	lat	lng	0.025390625	0.445068359375	0.9140625	2.549618320610687	-0.13740458015267176	0.732824427480916	0.0	0.0	0.0
2017-08-17 17:54:12.221589	lat	lng	0.0224609375	0.44580078125	0.904052734375	2.6106870229007635	0.0	0.8244274809160306	0.0	0.0	0.0
2017-08-17 17:54:12.240063	lat	lng	0.029541015625	0.44677734375	0.900146484375	2.6564885496183206	0.2595419847328244	0.9312977099236641	0.0	0.0	0.0
2017-08-17 17:54:12.257622	lat	lng	0.02685546875	0.450439453125	0.908935546875	2.519083969465649	3.8931297709923665	0.7175572519083969	0.0	0.0	0.0
2017-08-17 17:54:12.276860	lat	lng	0.02197265625	0.44189453125	0.90087890625	2.6106870229007635	-0.061068702290076333	0.7938931297709924	0.0	0.0	0.0
2017-08-17 17:54:12.294553	lat	lng	0.021728515625	0.4453125	0.90771484375	2.366412213740458	0.0	0.8854961832061069	0.0	0.0	0.0
2017-08-17 17:54:12.316420	lat	lng	0.026123046875	0.442626953125	0.903564453125	2.549618320610687	-0.12213740458015267	0.7938931297709924	0.0	0.0	0.0
2017-08-17 17:54:12.332747	lat	lng	0.028076171875	0.446044921875	0.901123046875	2.33587786259542	-0.015267175572519083	0.7786259541984732	0.0	0.0	0.0
2017-08-17 17:54:12.349995	lat	lng	0.029296875	0.44580078125	0.900634765625	2.4580152671755724	-0.15267175572519084	0.7022900763358778	0.0	0.0	0.0
2017-08-17 17:54:12.366658	lat	lng	0.0224609375	0.44775390625	0.908203125	2.564885496183206	0.183206106870229	0.8091603053435115	0.0	0.0	0.0
2017-08-17 17:54:12.385976	lat	lng	0.026123046875	0.446044921875	0.907470703125	2.6717557251908395	-0.061068702290076333	0.8702290076335878	0.0	0.0	0.0
2017-08-17 17:54:12.403427	lat	lng	0.028076171875	0.451904296875	0.910400390625	2.595419847328244	-0.0916030534351145	0.732824427480916	0.0	0.0	0.0
2017-08-17 17:54:12.422339	lat	lng	0.02978515625	0.44970703125	0.90234375	2.549618320610687	-0.2900763358778626	0.9618320610687023	0.0	0.0	0.0
2017-08-17 17:54:12.439947	lat	lng	0.02099609375	0.4443359375	0.905517578125	2.4580152671755724	0.13740458015267176	0.732824427480916	0.0	0.0	0.0
2017-08-17 17:54:12.458560	lat	lng	0.02685546875	0.4443359375	0.902587890625	2.50381679389313	-0.0916030534351145	0.8244274809160306	0.0	0.0	0.0
2017-08-17 17:54:12.477654	lat	lng	0.02734375	0.44384765625	0.908447265625	2.3969465648854964	-0.030534351145038167	0.8244274809160306	0.0	0.0	0.0
2017-08-17 17:54:12.497745	lat	lng	0.027587890625	0.44482421875	0.878662109375	2.6564885496183206	-0.13740458015267176	0.7480916030534351	0.0	0.0	0.0
2017-08-17 17:54:12.522198	lat	lng	0.029296875	0.43994140625	0.900390625	2.7938931297709924	0.061068702290076333	0.9465648854961832	0.0	0.0	0.0
2017-08-17 17:54:12.540544	lat	lng	0.0244140625	0.44775390625	0.903564453125	2.6564885496183206	-0.10687022900763359	0.8702290076335878	0.0	0.0	0.0
2017-08-17 17:54:12.557489	lat	lng	0.023681640625	0.44873046875	0.900390625	2.381679389312977	0.015267175572519083	0.9465648854961832	0.0	0.0	0.0
2017-08-17 17:54:12.574170	lat	lng	0.02783203125	0.4453125	0.90625	2.549618320610687	0.015267175572519083	0.7786259541984732	0.0	0.0	0.0
2017-08-17 17:54:12.591661	lat	lng	0.02294921875	0.44775390625	0.907958984375	2.4580152671755724	0.0	0.8396946564885496	0.0	0.0	0.0
2017-08-17 17:54:12.609611	lat	lng	0.02490234375	0.443115234375	0.9130859375	2.9618320610687023	-0.015267175572519083	0.7786259541984732	0.0	0.0	0.0
2017-08-17 17:54:12.626841	lat	lng	0.023681640625	0.44677734375	0.909423828125	2.2290076335877864	-0.21374045801526717	0.6870229007633588	0.0	0.0	0.0
2017-08-17 17:54:12.643210	lat	lng	0.024169921875	0.445068359375	0.9052734375	2.366412213740458	-0.04580152671755725	0.9312977099236641	0.0	0.0	0.0
2017-08-17 17:54:12.665303	lat	lng	0.024169921875	0.4453125	0.9052734375	2.687022900763359	-0.030534351145038167	0.8244274809160306	0.0	0.0	0.0
2017-08-17 17:54:12.681733	lat	lng	0.024169921875	0.4462890625	0.904296875	2.519083969465649	-0.10687022900763359	0.9618320610687023	0.0	0.0	0.0
2017-08-17 17:54:12.701279	lat	lng	0.025634765625	0.4443359375	0.904541015625	2.549618320610687	-0.21374045801526717	0.8244274809160306	0.0	0.0	0.0
2017-08-17 17:54:12.717747	lat	lng	0.025146484375	0.44775390625	0.904541015625	2.732824427480916	-0.16793893129770993	0.9007633587786259	0.0	0.0	0.0
2017-08-17 17:54:12.735521	lat	lng	0.024169921875	0.443603515625	0.90380859375	2.6259541984732824	-0.10687022900763359	0.8854961832061069	0.0	0.0	0.0
2017-08-17 17:54:12.752294	lat	lng	0.023193359375	0.441650390625	0.909423828125	2.885496183206107	0.0	0.6870229007633588	0.0	0.0	0.0
2017-08-17 17:54:12.770017	lat	lng	0.026123046875	0.44677734375	0.906494140625	2.519083969465649	-0.0916030534351145	0.8396946564885496	0.0	0.0	0.0
2017-08-17 17:54:12.786897	lat	lng	0.027099609375	0.446044921875	0.90087890625	2.549618320610687	0.21374045801526717	0.7786259541984732	0.0	0.0	0.0
2017-08-17 17:54:12.805686	lat	lng	0.02294921875	0.447021484375	0.902099609375	2.763358778625954	0.04580152671755725	0.9618320610687023	0.0	0.0	0.0
2017-08-17 17:54:12.826157	lat	lng	0.027587890625	0.445556640625	0.90185546875	2.5343511450381677	-0.15267175572519084	0.916030534351145	0.0	0.0	0.0
2017-08-17 17:54:12.848623	lat	lng	0.025390625	0.443359375	0.935302734375	2.6717557251908395	-0.10687022900763359	0.9007633587786259	0.0	0.0	0.0
2017-08-17 17:54:12.870763	lat	lng	0.023681640625	0.444580078125	0.906982421875	2.4885496183206106	-0.183206106870229	0.6259541984732825	0.0	0.0	0.0
2017-08-17 17:54:12.892120	lat	lng	0.022216796875	0.4462890625	0.906982421875	2.6259541984732824	-0.12213740458015267	0.7480916030534351	0.0	0.0	0.0
2017-08-17 17:54:12.913200	lat	lng	0.026123046875	0.4453125	0.90966796875	2.564885496183206	-0.22900763358778625	0.8396946564885496	0.0	0.0	0.0
2017-08-17 17:54:12.934179	lat	lng	0.02294921875	0.44775390625	0.90283203125	2.213740458015267	0.061068702290076333	0.7175572519083969	0.0	0.0	0.0
2017-08-17 17:54:12.956925	lat	lng	0.029052734375	0.446533203125	0.900634765625	2.7022900763358777	-0.061068702290076333	0.8244274809160306	0.0	0.0	0.0
2017-08-17 17:54:12.978992	lat	lng	0.0234375	0.44775390625	0.908447265625	2.687022900763359	-0.15267175572519084	1.0076335877862594	0.0	0.0	0.0
2017-08-17 17:54:13.001880	lat	lng	0.026611328125	0.443603515625	0.90380859375	2.6106870229007635	-0.0916030534351145	0.7938931297709924	0.0	0.0	0.0
2017-08-17 17:54:13.024149	lat	lng	0.022216796875	0.445556640625	0.93701171875	2.564885496183206	-0.10687022900763359	0.7633587786259542	0.0	0.0	0.0
2017-08-17 17:54:13.045980	lat	lng	0.0283203125	0.447265625	0.904296875	2.6106870229007635	-0.24427480916030533	0.7938931297709924	0.0	0.0	0.0
2017-08-17 17:54:13.063135	lat	lng	0.026611328125	0.446044921875	0.90380859375	2.6259541984732824	-0.16793893129770993	0.5190839694656488	0.0	0.0	0.0
2017-08-17 17:54:13.082319	lat	lng	0.027587890625	0.441650390625	0.890625	2.717557251908397	0.183206106870229	0.7786259541984732	0.0	0.0	0.0
2017-08-17 17:54:13.100211	lat	lng	0.02587890625	0.4462890625	0.911376953125	2.5343511450381677	-0.030534351145038167	0.6106870229007634	0.0	0.0	0.0
2017-08-17 17:54:13.122224	lat	lng	0.0244140625	0.44775390625	0.905517578125	2.6564885496183206	0.061068702290076333	0.7633587786259542	0.0	0.0	0.0
2017-08-17 17:54:13.138829	lat	lng	0.02783203125	0.4443359375	0.905517578125	2.5343511450381677	0.04580152671755725	0.916030534351145	0.0	0.0	0.0
2017-08-17 17:54:13.155789	lat	lng	0.02734375	0.447021484375	0.905029296875	2.5801526717557253	-0.030534351145038167	0.7786259541984732	0.0	0.0	0.0
2017-08-17 17:54:13.176808	lat	lng	0.02685546875	0.44580078125	0.905517578125	2.717557251908397	-0.15267175572519084	0.7938931297709924	0.0	0.0	0.0
2017-08-17 17:54:13.194415	lat	lng	0.027587890625	0.446044921875	0.93505859375	2.519083969465649	-0.2595419847328244	0.8549618320610687	0.0	0.0	0.0
2017-08-17 17:54:13.212477	lat	lng	0.028564453125	0.44775390625	0.90283203125	2.5801526717557253	-0.15267175572519084	0.7175572519083969	0.0	0.0	0.0
2017-08-17 17:54:13.229538	lat	lng	0.02734375	0.447998046875	0.90625	2.3206106870229006	-0.030534351145038167	1.0381679389312977	0.0	0.0	0.0
2017-08-17 17:54:13.251483	lat	lng	0.02392578125	0.447021484375	0.907958984375	2.7786259541984735	-0.1984732824427481	0.916030534351145	0.0	0.0	0.0
2017-08-17 17:54:13.268397	lat	lng	0.02490234375	0.446044921875	0.913818359375	2.50381679389313	-0.21374045801526717	0.8396946564885496	0.0	0.0	0.0
2017-08-17 17:54:13.292120	lat	lng	0.02294921875	0.447998046875	0.90673828125	2.50381679389313	0.0916030534351145	0.732824427480916	0.0	0.0	0.0
2017-08-17 17:54:13.309700	lat	lng	0.024169921875	0.445068359375	0.908203125	2.7022900763358777	0.0916030534351145	0.8549618320610687	0.0	0.0	0.0
2017-08-17 17:54:13.327910	lat	lng	0.023193359375	0.451171875	0.903564453125	2.549618320610687	0.13740458015267176	0.7022900763358778	0.0	0.0	0.0
2017-08-17 17:54:13.345624	lat	lng	0.02587890625	0.4453125	0.90234375	2.6564885496183206	0.10687022900763359	0.7022900763358778	0.0	0.0	0.0
2017-08-17 17:54:13.364623	lat	lng	0.02490234375	0.444091796875	0.908447265625	2.549618320610687	0.015267175572519083	0.7786259541984732	0.0	0.0	0.0
2017-08-17 17:54:13.385369	lat	lng	0.024169921875	0.4453125	0.90087890625	2.564885496183206	-0.10687022900763359	1.0381679389312977	0.0	0.0	0.0
2017-08-17 17:54:13.402350	lat	lng	0.02587890625	0.445068359375	0.906494140625	2.6106870229007635	-0.1984732824427481	0.8396946564885496	0.0	0.0	0.0
2017-08-17 17:54:13.420046	lat	lng	0.021240234375	0.446044921875	0.9072265625	2.381679389312977	0.32061068702290074	0.7480916030534351	0.0	0.0	0.0
2017-08-17 17:54:13.436899	lat	lng	0.027587890625	0.44677734375	0.9033203125	2.351145038167939	0.015267175572519083	0.916030534351145	0.0	0.0	0.0
2017-08-17 17:54:13.454256	lat	lng	0.02685546875	0.44482421875	0.901123046875	2.5801526717557253	0.030534351145038167	0.916030534351145	0.0	0.0	0.0
2017-08-17 17:54:13.471076	lat	lng	0.0263671875	0.450439453125	0.906005859375	2.6412213740458017	0.0916030534351145	0.9465648854961832	0.0	0.0	0.0
2017-08-17 17:54:13.488135	lat	lng	0.025390625	0.441650390625	0.905517578125	2.6717557251908395	-3.9083969465648853	0.8854961832061069	0.0	0.0	0.0
2017-08-17 17:54:13.505231	lat	lng	0.02783203125	0.4443359375	0.905029296875	2.7022900763358777	0.12213740458015267	0.732824427480916	0.0	0.0	0.0
2017-08-17 17:54:13.522852	lat	lng	0.021484375	0.4482421875	0.904052734375	2.4122137404580153	0.030534351145038167	0.8244274809160306	0.0	0.0	0.0
2017-08-17 17:54:13.539955	lat	lng	0.02392578125	0.4453125	0.910400390625	2.427480916030534	-0.07633587786259542	0.8244274809160306	0.0	0.0	0.0
2017-08-17 17:54:13.557514	lat	lng	0.0224609375	0.447509765625	0.906494140625	2.5801526717557253	-0.10687022900763359	0.8702290076335878	0.0	0.0	0.0
2017-08-17 17:54:13.574652	lat	lng	0.02490234375	0.446533203125	0.907958984375	2.6564885496183206	0.061068702290076333	0.9618320610687023	0.0	0.0	0.0
2017-08-17 17:54:13.591855	lat	lng	0.022705078125	0.445556640625	0.912841796875	2.4580152671755724	-0.061068702290076333	0.8702290076335878	0.0	0.0	0.0
2017-08-17 17:54:13.610218	lat	lng	0.02490234375	0.448486328125	0.90625	2.427480916030534	-0.12213740458015267	0.9465648854961832	0.0	0.0	0.0
2017-08-17 17:54:13.629997	lat	lng	0.02490234375	0.4453125	0.9033203125	2.549618320610687	-0.22900763358778625	0.7480916030534351	0.0	0.0	0.0
2017-08-17 17:54:13.648576	lat	lng	0.030517578125	0.4453125	0.911376953125	2.595419847328244	-3.877862595419847	1.0381679389312977	0.0	0.0	0.0
2017-08-17 17:54:13.667584	lat	lng	0.0234375	0.44384765625	0.903564453125	2.6259541984732824	-0.07633587786259542	0.8244274809160306	0.0	0.0	0.0
2017-08-17 17:54:13.686154	lat	lng	0.025634765625	0.447021484375	0.9072265625	2.427480916030534	3.8931297709923665	0.6870229007633588	0.0	0.0	0.0
2017-08-17 17:54:13.706212	lat	lng	0.025146484375	0.44580078125	0.90234375	2.6412213740458017	-0.21374045801526717	0.7938931297709924	0.0	0.0	0.0
2017-08-17 17:54:13.724631	lat	lng	0.022216796875	0.447265625	0.9140625	2.8702290076335877	0.0916030534351145	0.6717557251908397	0.0	0.0	0.0
2017-08-17 17:54:13.745042	lat	lng	0.0224609375	0.4462890625	0.903076171875	2.564885496183206	-0.10687022900763359	0.8091603053435115	0.0	0.0	0.0
2017-08-17 17:54:13.776066	lat	lng	0.027099609375	0.448974609375	0.900390625	2.7786259541984735	-0.12213740458015267	0.732824427480916	0.0	0.0	0.0
2017-08-17 17:54:13.797617	lat	lng	0.025146484375	0.449462890625	0.905029296875	2.427480916030534	-0.10687022900763359	0.916030534351145	0.0	0.0	0.0
2017-08-17 17:54:13.823679	lat	lng	0.024169921875	0.447265625	0.905029296875	2.4885496183206106	-0.3511450381679389	1.0076335877862594	0.0	0.0	0.0
2017-08-17 17:54:13.844981	lat	lng	0.0302734375	0.446044921875	0.9033203125	2.717557251908397	-0.04580152671755725	0.916030534351145	0.0	0.0	0.0
2017-08-17 17:54:13.864615	lat	lng	0.020263671875	0.44482421875	0.896484375	2.33587786259542	-0.10687022900763359	1.0076335877862594	0.0	0.0	0.0
2017-08-17 17:54:13.883947	lat	lng	0.023193359375	0.44580078125	0.908203125	2.5343511450381677	-0.21374045801526717	0.9312977099236641	0.0	0.0	0.0
2017-08-17 17:54:13.900664	lat	lng	0.02880859375	0.447998046875	0.90625	2.549618320610687	-0.07633587786259542	0.5038167938931297	0.0	0.0	0.0
2017-08-17 17:54:13.917476	lat	lng	0.028076171875	0.44287109375	0.901611328125	2.732824427480916	-0.07633587786259542	0.8702290076335878	0.0	0.0	0.0
2017-08-17 17:54:13.934287	lat	lng	0.02490234375	0.443603515625	0.908203125	2.3969465648854964	-0.10687022900763359	0.9007633587786259	0.0	0.0	0.0
2017-08-17 17:54:13.951037	lat	lng	0.02587890625	0.447265625	0.90869140625	2.564885496183206	0.10687022900763359	1.1145038167938932	0.0	0.0	0.0
2017-08-17 17:54:13.967654	lat	lng	0.02392578125	0.449462890625	0.904541015625	2.7022900763358777	0.030534351145038167	1.0687022900763359	0.0	0.0	0.0
2017-08-17 17:54:13.984632	lat	lng	0.027099609375	0.447509765625	0.903564453125	2.564885496183206	-0.015267175572519083	0.7175572519083969	0.0	0.0	0.0
2017-08-17 17:54:14.001305	lat	lng	0.02783203125	0.445556640625	0.90625	2.564885496183206	0.0	0.7938931297709924	0.0	0.0	0.0
2017-08-17 17:54:14.019066	lat	lng	0.0263671875	0.44921875	0.905029296875	2.519083969465649	0.015267175572519083	0.8549618320610687	0.0	0.0	0.0
2017-08-17 17:54:14.035767	lat	lng	0.025634765625	0.44873046875	0.907470703125	2.183206106870229	-0.015267175572519083	0.6106870229007634	0.0	0.0	0.0
2017-08-17 17:54:14.052527	lat	lng	0.02734375	0.44873046875	0.876953125	2.564885496183206	-0.030534351145038167	0.6870229007633588	0.0	0.0	0.0
2017-08-17 17:54:14.069148	lat	lng	0.0263671875	0.4521484375	0.9189453125	2.381679389312977	-0.04580152671755725	0.8244274809160306	0.0	0.0	0.0
2017-08-17 17:54:14.086013	lat	lng	0.0283203125	0.446533203125	0.912353515625	2.3206106870229006	0.015267175572519083	0.9312977099236641	0.0	0.0	0.0
2017-08-17 17:54:14.102756	lat	lng	0.027099609375	0.44775390625	0.90576171875	2.5343511450381677	-0.030534351145038167	0.8244274809160306	0.0	0.0	0.0
2017-08-17 17:54:14.119095	lat	lng	0.023193359375	0.447265625	0.93310546875	2.5343511450381677	-0.07633587786259542	0.8702290076335878	0.0	0.0	0.0
2017-08-17 17:54:14.136380	lat	lng	0.030029296875	0.4453125	0.903564453125	2.6412213740458017	0.030534351145038167	0.9007633587786259	0.0	0.0	0.0
2017-08-17 17:54:14.152765	lat	lng	0.0244140625	0.448974609375	0.90185546875	2.717557251908397	-0.183206106870229	0.6564885496183206	0.0	0.0	0.0
2017-08-17 17:54:14.169978	lat	lng	0.023681640625	0.451171875	0.903564453125	2.5801526717557253	-0.12213740458015267	0.9007633587786259	0.0	0.0	0.0
2017-08-17 17:54:14.186397	lat	lng	0.02587890625	0.448974609375	0.9052734375	2.564885496183206	-0.24427480916030533	0.9312977099236641	0.0	0.0	0.0
2017-08-17 17:54:14.204681	lat	lng	0.026611328125	0.447998046875	0.90673828125	2.519083969465649	-0.030534351145038167	0.7175572519083969	0.0	0.0	0.0
2017-08-17 17:54:14.225973	lat	lng	0.02392578125	0.445068359375	0.90283203125	2.4732824427480917	-0.12213740458015267	1.0076335877862594	0.0	0.0	0.0
2017-08-17 17:54:14.242866	lat	lng	0.025634765625	0.447998046875	0.90478515625	2.7480916030534353	0.015267175572519083	0.7480916030534351	0.0	0.0	0.0
2017-08-17 17:54:14.259586	lat	lng	0.02490234375	0.447265625	0.91064453125	2.4885496183206106	-0.015267175572519083	0.7938931297709924	0.0	0.0	0.0
2017-08-17 17:54:14.277110	lat	lng	0.024169921875	0.447265625	0.907958984375	2.50381679389313	0.12213740458015267	0.8091603053435115	0.0	0.0	0.0
2017-08-17 17:54:14.294610	lat	lng	0.023193359375	0.44580078125	0.89697265625	2.732824427480916	0.0	0.7480916030534351	0.0	0.0	0.0
2017-08-17 17:54:14.312076	lat	lng	0.026123046875	0.443603515625	0.908447265625	2.4427480916030535	-0.10687022900763359	0.8549618320610687	0.0	0.0	0.0
2017-08-17 17:54:14.329358	lat	lng	0.02294921875	0.446533203125	0.906494140625	2.5343511450381677	-0.2900763358778626	1.1297709923664123	0.0	0.0	0.0
2017-08-17 17:54:14.346796	lat	lng	0.026123046875	0.447509765625	0.9013671875	2.4122137404580153	0.0916030534351145	0.8244274809160306	0.0	0.0	0.0
2017-08-17 17:54:14.365240	lat	lng	0.024658203125	0.441162109375	0.904052734375	2.595419847328244	-0.1984732824427481	0.7938931297709924	0.0	0.0	0.0
2017-08-17 17:54:14.382300	lat	lng	0.0263671875	0.44482421875	0.9072265625	2.564885496183206	-0.10687022900763359	1.1755725190839694	0.0	0.0	0.0
2017-08-17 17:54:14.399166	lat	lng	0.024169921875	0.4462890625	0.90869140625	2.213740458015267	0.061068702290076333	0.8396946564885496	0.0	0.0	0.0
2017-08-17 17:54:14.416148	lat	lng	0.02392578125	0.4462890625	0.90869140625	2.213740458015267	0.183206106870229	0.9007633587786259	0.0	0.0	0.0
2017-08-17 17:54:14.433156	lat	lng	0.02392578125	0.4453125	0.90185546875	2.717557251908397	-0.22900763358778625	0.7633587786259542	0.0	0.0	0.0
2017-08-17 17:54:14.450060	lat	lng	0.02392578125	0.447265625	0.9091796875	2.595419847328244	-0.15267175572519084	1.099236641221374	0.0	0.0	0.0
2017-08-17 17:54:14.466973	lat	lng	0.021484375	0.446533203125	0.9091796875	2.4885496183206106	-0.15267175572519084	0.732824427480916	0.0	0.0	0.0
2017-08-17 17:54:14.483935	lat	lng	0.024658203125	0.447998046875	0.905517578125	2.5801526717557253	-0.22900763358778625	0.8396946564885496	0.0	0.0	0.0
2017-08-17 17:54:14.501142	lat	lng	0.023681640625	0.449462890625	0.908447265625	2.763358778625954	0.07633587786259542	0.7786259541984732	0.0	0.0	0.0
2017-08-17 17:54:14.518067	lat	lng	0.0224609375	0.449951171875	0.906982421875	2.687022900763359	-3.877862595419847	0.7480916030534351	0.0	0.0	0.0
2017-08-17 17:54:14.534881	lat	lng	0.028076171875	0.44384765625	0.904296875	2.732824427480916	-0.04580152671755725	0.9618320610687023	0.0	0.0	0.0
2017-08-17 17:54:14.551639	lat	lng	0.025146484375	0.44873046875	0.90185546875	2.7022900763358777	-0.2748091603053435	0.7022900763358778	0.0	0.0	0.0
2017-08-17 17:54:14.572143	lat	lng	0.02685546875	0.44775390625	0.875	2.7480916030534353	-0.24427480916030533	0.7633587786259542	0.0	0.0	0.0
2017-08-17 17:54:14.593031	lat	lng	0.0244140625	0.44384765625	0.90283203125	2.6106870229007635	-0.061068702290076333	0.7633587786259542	0.0	0.0	0.0
2017-08-17 17:54:14.615544	lat	lng	0.02783203125	0.446044921875	0.91064453125	2.595419847328244	0.24427480916030533	0.7480916030534351	0.0	0.0	0.0
2017-08-17 17:54:14.636389	lat	lng	0.023193359375	0.44580078125	0.90576171875	2.427480916030534	-0.13740458015267176	0.9007633587786259	0.0	0.0	0.0
2017-08-17 17:54:14.657296	lat	lng	0.02685546875	0.446533203125	0.909423828125	2.4427480916030535	0.0	0.7938931297709924	0.0	0.0	0.0
2017-08-17 17:54:14.678293	lat	lng	0.025146484375	0.444580078125	0.90576171875	2.595419847328244	0.030534351145038167	0.8244274809160306	0.0	0.0	0.0
2017-08-17 17:54:14.699133	lat	lng	0.028076171875	0.446533203125	0.90771484375	2.6717557251908395	-3.9083969465648853	0.7938931297709924	0.0	0.0	0.0
2017-08-17 17:54:14.720377	lat	lng	0.02294921875	0.44384765625	0.901123046875	2.6259541984732824	0.07633587786259542	0.6870229007633588	0.0	0.0	0.0
2017-08-17 17:54:14.741073	lat	lng	0.023193359375	0.448486328125	0.906982421875	2.5343511450381677	-0.1984732824427481	1.0229007633587786	0.0	0.0	0.0
2017-08-17 17:54:14.761877	lat	lng	0.02587890625	0.4462890625	0.908935546875	2.4427480916030535	-0.183206106870229	1.1908396946564885	0.0	0.0	0.0
2017-08-17 17:54:14.782563	lat	lng	0.0244140625	0.445068359375	0.900146484375	2.717557251908397	0.13740458015267176	0.8854961832061069	0.0	0.0	0.0
2017-08-17 17:54:14.803552	lat	lng	0.024658203125	0.446044921875	0.902099609375	2.4732824427480917	0.15267175572519084	1.0229007633587786	0.0	0.0	0.0
2017-08-17 17:54:14.824636	lat	lng	0.02978515625	0.445068359375	0.904296875	2.6564885496183206	0.10687022900763359	1.1297709923664123	0.0	0.0	0.0
2017-08-17 17:54:14.845563	lat	lng	0.025634765625	0.446044921875	0.902587890625	2.4732824427480917	-0.24427480916030533	0.8702290076335878	0.0	0.0	0.0
2017-08-17 17:54:14.866423	lat	lng	0.0263671875	0.447509765625	0.900634765625	2.3969465648854964	-0.15267175572519084	0.7480916030534351	0.0	0.0	0.0
2017-08-17 17:54:14.887429	lat	lng	0.025390625	0.448974609375	0.903564453125	2.5343511450381677	-0.07633587786259542	0.916030534351145	0.0	0.0	0.0
2017-08-17 17:54:14.908286	lat	lng	0.02587890625	0.4443359375	0.906005859375	2.4885496183206106	0.061068702290076333	0.7022900763358778	0.0	0.0	0.0
2017-08-17 17:54:14.929102	lat	lng	0.023681640625	0.44677734375	0.910400390625	2.33587786259542	-0.030534351145038167	0.6259541984732825	0.0	0.0	0.0
2017-08-17 17:54:14.949981	lat	lng	0.02490234375	0.446533203125	0.89892578125	2.7022900763358777	-0.0916030534351145	0.9312977099236641	0.0	0.0	0.0
2017-08-17 17:54:14.970699	lat	lng	0.0263671875	0.44873046875	0.90478515625	2.5801526717557253	0.21374045801526717	0.42748091603053434	0.0	0.0	0.0
2017-08-17 17:54:14.991427	lat	lng	0.02490234375	0.44873046875	0.90087890625	2.5801526717557253	0.07633587786259542	0.7938931297709924	0.0	0.0	0.0
2017-08-17 17:54:15.012125	lat	lng	0.02587890625	0.445556640625	0.901611328125	2.50381679389313	-0.16793893129770993	0.7175572519083969	0.0	0.0	0.0
2017-08-17 17:54:15.033377	lat	lng	0.028076171875	0.447998046875	0.90625	2.717557251908397	0.183206106870229	0.8702290076335878	0.0	0.0	0.0
2017-08-17 17:54:15.057348	lat	lng	0.024169921875	0.444091796875	0.902099609375	2.6106870229007635	-0.1984732824427481	0.8244274809160306	0.0	0.0	0.0
2017-08-17 17:54:15.081799	lat	lng	0.02392578125	0.4453125	0.8984375	2.4885496183206106	-0.12213740458015267	0.8549618320610687	0.0	0.0	0.0
2017-08-17 17:54:15.104890	lat	lng	0.023681640625	0.447021484375	0.9111328125	2.4732824427480917	-0.061068702290076333	0.732824427480916	0.0	0.0	0.0
2017-08-17 17:54:15.127686	lat	lng	0.025146484375	0.449951171875	0.90185546875	2.4885496183206106	-0.13740458015267176	0.7938931297709924	0.0	0.0	0.0
2017-08-17 17:54:15.156389	lat	lng	0.0283203125	0.446044921875	0.901123046875	2.549618320610687	-0.13740458015267176	0.8091603053435115	0.0	0.0	0.0
2017-08-17 17:54:15.178312	lat	lng	0.0244140625	0.4462890625	0.900146484375	2.763358778625954	-0.061068702290076333	0.6717557251908397	0.0	0.0	0.0
2017-08-17 17:54:15.201421	lat	lng	0.026611328125	0.445068359375	0.9033203125	2.366412213740458	0.183206106870229	0.9007633587786259	0.0	0.0	0.0
2017-08-17 17:54:15.223716	lat	lng	0.0244140625	0.444091796875	0.90380859375	2.381679389312977	-0.22900763358778625	0.9312977099236641	0.0	0.0	0.0
2017-08-17 17:54:15.247968	lat	lng	0.0244140625	0.4423828125	0.896484375	2.50381679389313	-0.030534351145038167	0.8549618320610687	0.0	0.0	0.0
2017-08-17 17:54:15.274153	lat	lng	0.024169921875	0.44677734375	0.907958984375	2.519083969465649	0.07633587786259542	0.8702290076335878	0.0	0.0	0.0
2017-08-17 17:54:15.297610	lat	lng	0.0244140625	0.444091796875	0.902587890625	2.595419847328244	0.0916030534351145	0.8702290076335878	0.0	0.0	0.0
2017-08-17 17:54:15.332777	lat	lng	0.0263671875	0.446533203125	0.904052734375	2.6106870229007635	-0.24427480916030533	0.8091603053435115	0.0	0.0	0.0
2017-08-17 17:54:15.358470	lat	lng	0.0244140625	0.446533203125	0.90576171875	2.7480916030534353	0.15267175572519084	1.1908396946564885	0.0	0.0	0.0
2017-08-17 17:54:15.380794	lat	lng	0.026611328125	0.446044921875	0.9111328125	2.3969465648854964	-0.07633587786259542	0.8854961832061069	0.0	0.0	0.0
2017-08-17 17:54:15.400236	lat	lng	0.025390625	0.446533203125	0.907470703125	2.6259541984732824	-0.061068702290076333	0.7938931297709924	0.0	0.0	0.0
2017-08-17 17:54:15.418973	lat	lng	0.020751953125	0.4453125	0.903564453125	2.5801526717557253	-0.16793893129770993	0.6717557251908397	0.0	0.0	0.0
2017-08-17 17:54:15.438300	lat	lng	0.0224609375	0.450439453125	0.905517578125	2.5343511450381677	0.21374045801526717	0.9312977099236641	0.0	0.0	0.0
2017-08-17 17:54:15.457105	lat	lng	0.026611328125	0.447998046875	0.906005859375	2.427480916030534	0.16793893129770993	0.9007633587786259	0.0	0.0	0.0
2017-08-17 17:54:15.474763	lat	lng	0.024169921875	0.444091796875	0.899169921875	2.6564885496183206	-0.030534351145038167	0.8854961832061069	0.0	0.0	0.0
2017-08-17 17:54:15.495107	lat	lng	0.028564453125	0.447021484375	0.906982421875	2.4732824427480917	0.183206106870229	0.8244274809160306	0.0	0.0	0.0
2017-08-17 17:54:15.515714	lat	lng	0.021728515625	0.448486328125	0.905029296875	2.595419847328244	0.24427480916030533	1.0687022900763359	0.0	0.0	0.0
2017-08-17 17:54:15.534294	lat	lng	0.029296875	0.447021484375	0.90869140625	2.427480916030534	-0.183206106870229	0.6717557251908397	0.0	0.0	0.0
2017-08-17 17:54:15.552654	lat	lng	0.026611328125	0.44775390625	0.901123046875	2.4580152671755724	-3.8931297709923665	0.8854961832061069	0.0	0.0	0.0
2017-08-17 17:54:15.571410	lat	lng	0.0205078125	0.44482421875	0.9091796875	2.564885496183206	-0.061068702290076333	0.732824427480916	0.0	0.0	0.0
2017-08-17 17:54:15.589786	lat	lng	0.023193359375	0.4482421875	0.90185546875	2.7022900763358777	0.04580152671755725	0.8091603053435115	0.0	0.0	0.0
2017-08-17 17:54:15.609772	lat	lng	0.027587890625	0.44482421875	0.90869140625	2.4427480916030535	0.07633587786259542	0.9923664122137404	0.0	0.0	0.0
2017-08-17 17:54:15.633717	lat	lng	0.0263671875	0.447509765625	0.905029296875	2.564885496183206	-0.04580152671755725	1.0229007633587786	0.0	0.0	0.0
2017-08-17 17:54:15.652043	lat	lng	0.02294921875	0.444091796875	0.905029296875	2.564885496183206	-0.22900763358778625	0.9923664122137404	0.0	0.0	0.0
2017-08-17 17:54:15.676671	lat	lng	0.025634765625	0.44970703125	0.908203125	2.595419847328244	-0.061068702290076333	0.8549618320610687	0.0	0.0	0.0
2017-08-17 17:54:15.696019	lat	lng	0.0244140625	0.447265625	0.904052734375	2.6717557251908395	-0.22900763358778625	1.0076335877862594	0.0	0.0	0.0
2017-08-17 17:54:15.716590	lat	lng	0.025146484375	0.44873046875	0.90185546875	2.6564885496183206	-0.10687022900763359	0.916030534351145	0.0	0.0	0.0
2017-08-17 17:54:15.734857	lat	lng	0.031005859375	0.44580078125	0.907470703125	2.7480916030534353	-0.21374045801526717	0.9618320610687023	0.0	0.0	0.0
2017-08-17 17:54:15.752897	lat	lng	0.0263671875	0.445556640625	0.904296875	2.5343511450381677	-0.10687022900763359	0.8549618320610687	0.0	0.0	0.0
2017-08-17 17:54:15.770731	lat	lng	0.021484375	0.447998046875	0.912109375	2.4427480916030535	-0.16793893129770993	1.0076335877862594	0.0	0.0	0.0
2017-08-17 17:54:15.788820	lat	lng	0.028076171875	0.44384765625	0.906982421875	2.6717557251908395	-0.12213740458015267	0.8854961832061069	0.0	0.0	0.0
2017-08-17 17:54:15.806916	lat	lng	0.023681640625	0.4462890625	0.907470703125	2.381679389312977	0.030534351145038167	0.9770992366412213	0.0	0.0	0.0
2017-08-17 17:54:15.824753	lat	lng	0.02783203125	0.4443359375	0.9072265625	2.351145038167939	0.0	0.8396946564885496	0.0	0.0	0.0
2017-08-17 17:54:15.842605	lat	lng	0.023681640625	0.446533203125	0.90576171875	2.6564885496183206	-0.21374045801526717	0.8091603053435115	0.0	0.0	0.0
2017-08-17 17:54:15.861728	lat	lng	0.029052734375	0.443115234375	0.897216796875	2.564885496183206	-0.061068702290076333	0.8244274809160306	0.0	0.0	0.0
2017-08-17 17:54:15.883323	lat	lng	0.0244140625	0.445068359375	0.905517578125	2.732824427480916	-0.015267175572519083	1.0229007633587786	0.0	0.0	0.0
2017-08-17 17:54:15.901754	lat	lng	0.027099609375	0.445556640625	0.90625	2.687022900763359	-0.13740458015267176	0.5343511450381679	0.0	0.0	0.0
2017-08-17 17:54:15.920204	lat	lng	0.022216796875	0.445068359375	0.905029296875	2.549618320610687	-0.2595419847328244	0.916030534351145	0.0	0.0	0.0
2017-08-17 17:54:15.938066	lat	lng	0.025390625	0.446533203125	0.906494140625	2.50381679389313	-0.1984732824427481	0.7938931297709924	0.0	0.0	0.0
2017-08-17 17:54:15.956137	lat	lng	0.019775390625	0.449462890625	0.875	2.6412213740458017	0.10687022900763359	0.8244274809160306	0.0	0.0	0.0
2017-08-17 17:54:15.975478	lat	lng	0.027587890625	0.443115234375	0.916015625	2.7022900763358777	0.0	0.9007633587786259	0.0	0.0	0.0
2017-08-17 17:54:15.997662	lat	lng	0.026123046875	0.444091796875	0.909423828125	2.4732824427480917	-0.0916030534351145	1.0534351145038168	0.0	0.0	0.0
2017-08-17 17:54:16.014625	lat	lng	0.024658203125	0.44677734375	0.875732421875	2.4580152671755724	3.8931297709923665	0.6564885496183206	0.0	0.0	0.0
2017-08-17 17:54:16.031430	lat	lng	0.025146484375	0.44482421875	0.9072265625	2.6106870229007635	0.12213740458015267	0.916030534351145	0.0	0.0	0.0
2017-08-17 17:54:16.048440	lat	lng	0.0244140625	0.447998046875	0.9111328125	2.16793893129771	0.07633587786259542	0.7175572519083969	0.0	0.0	0.0
2017-08-17 17:54:16.065366	lat	lng	0.025390625	0.4482421875	0.90283203125	2.5343511450381677	0.13740458015267176	0.9923664122137404	0.0	0.0	0.0
2017-08-17 17:54:16.083570	lat	lng	0.02294921875	0.44482421875	0.911865234375	2.687022900763359	-0.061068702290076333	0.8854961832061069	0.0	0.0	0.0
2017-08-17 17:54:16.104058	lat	lng	0.025634765625	0.448974609375	0.90380859375	2.4732824427480917	-0.061068702290076333	0.7633587786259542	0.0	0.0	0.0
2017-08-17 17:54:16.124603	lat	lng	0.023193359375	0.445068359375	0.913330078125	2.519083969465649	-0.21374045801526717	0.9770992366412213	0.0	0.0	0.0
2017-08-17 17:54:16.144891	lat	lng	0.025634765625	0.445556640625	0.907470703125	2.8396946564885495	-0.10687022900763359	0.8702290076335878	0.0	0.0	0.0
2017-08-17 17:54:16.165503	lat	lng	0.028076171875	0.4443359375	0.90625	2.6259541984732824	0.015267175572519083	1.0381679389312977	0.0	0.0	0.0
2017-08-17 17:54:16.186043	lat	lng	0.026123046875	0.4462890625	0.9072265625	2.717557251908397	-0.22900763358778625	0.7633587786259542	0.0	0.0	0.0
2017-08-17 17:54:16.206492	lat	lng	0.02197265625	0.44384765625	0.937255859375	2.6412213740458017	-0.183206106870229	0.7786259541984732	0.0	0.0	0.0
2017-08-17 17:54:16.227879	lat	lng	0.026123046875	0.448974609375	0.9013671875	2.732824427480916	-0.10687022900763359	0.7786259541984732	0.0	0.0	0.0
2017-08-17 17:54:16.248340	lat	lng	0.02734375	0.449462890625	0.908447265625	2.50381679389313	-0.10687022900763359	0.732824427480916	0.0	0.0	0.0
2017-08-17 17:54:16.269158	lat	lng	0.027099609375	0.447509765625	0.90478515625	2.427480916030534	-0.22900763358778625	0.8396946564885496	0.0	0.0	0.0
2017-08-17 17:54:16.289815	lat	lng	0.02685546875	0.447509765625	0.91259765625	2.4427480916030535	-0.16793893129770993	0.7022900763358778	0.0	0.0	0.0
2017-08-17 17:54:16.310324	lat	lng	0.02734375	0.441162109375	0.90771484375	2.732824427480916	-0.22900763358778625	0.7480916030534351	0.0	0.0	0.0
2017-08-17 17:54:16.330721	lat	lng	0.029296875	0.44140625	0.903564453125	2.732824427480916	-0.15267175572519084	0.8549618320610687	0.0	0.0	0.0
2017-08-17 17:54:16.351099	lat	lng	0.02490234375	0.442626953125	0.9091796875	2.33587786259542	0.0	0.7175572519083969	0.0	0.0	0.0
2017-08-17 17:54:16.371416	lat	lng	0.02490234375	0.446533203125	0.937255859375	2.6259541984732824	0.061068702290076333	0.8854961832061069	0.0	0.0	0.0
2017-08-17 17:54:16.391730	lat	lng	0.024658203125	0.446044921875	0.90625	2.4580152671755724	-0.24427480916030533	0.9923664122137404	0.0	0.0	0.0
2017-08-17 17:54:16.412261	lat	lng	0.026611328125	0.4453125	0.91015625	2.6259541984732824	-0.12213740458015267	0.44274809160305345	0.0	0.0	0.0
2017-08-17 17:54:16.432611	lat	lng	0.0244140625	0.444580078125	0.906005859375	2.564885496183206	-0.0916030534351145	0.8091603053435115	0.0	0.0	0.0
2017-08-17 17:54:16.453023	lat	lng	0.028076171875	0.44677734375	0.90380859375	2.3206106870229006	-0.12213740458015267	0.7938931297709924	0.0	0.0	0.0
2017-08-17 17:54:16.473478	lat	lng	0.023193359375	0.44873046875	0.90625	2.6259541984732824	0.12213740458015267	0.8854961832061069	0.0	0.0	0.0
2017-08-17 17:54:16.494131	lat	lng	0.0263671875	0.44580078125	0.901123046875	2.595419847328244	-0.015267175572519083	0.9465648854961832	0.0	0.0	0.0
2017-08-17 17:54:16.515237	lat	lng	0.0224609375	0.44677734375	0.9033203125	2.6412213740458017	0.015267175572519083	0.7480916030534351	0.0	0.0	0.0
2017-08-17 17:54:16.535993	lat	lng	0.022705078125	0.443115234375	0.908447265625	2.6106870229007635	-0.030534351145038167	0.6564885496183206	0.0	0.0	0.0
2017-08-17 17:54:16.556372	lat	lng	0.0244140625	0.44580078125	0.9365234375	2.564885496183206	-0.07633587786259542	0.7175572519083969	0.0	0.0	0.0
2017-08-17 17:54:16.576900	lat	lng	0.02392578125	0.44580078125	0.90673828125	2.519083969465649	-0.07633587786259542	0.7786259541984732	0.0	0.0	0.0
2017-08-17 17:54:16.597569	lat	lng	0.025634765625	0.449951171875	0.90087890625	2.5801526717557253	-0.10687022900763359	0.7633587786259542	0.0	0.0	0.0
2017-08-17 17:54:16.618696	lat	lng	0.029541015625	0.447021484375	0.900634765625	2.595419847328244	-0.061068702290076333	0.7938931297709924	0.0	0.0	0.0
2017-08-17 17:54:16.639322	lat	lng	0.027099609375	0.44384765625	0.905029296875	2.6717557251908395	0.061068702290076333	0.7786259541984732	0.0	0.0	0.0
2017-08-17 17:54:16.659942	lat	lng	0.02978515625	0.445068359375	0.9013671875	2.50381679389313	0.07633587786259542	1.0229007633587786	0.0	0.0	0.0
2017-08-17 17:54:16.680342	lat	lng	0.025634765625	0.447265625	0.906005859375	2.717557251908397	-0.0916030534351145	0.8854961832061069	0.0	0.0	0.0
2017-08-17 17:54:16.700879	lat	lng	0.02294921875	0.447265625	0.906494140625	2.33587786259542	0.04580152671755725	0.9007633587786259	0.0	0.0	0.0
2017-08-17 17:54:16.726614	lat	lng	0.0224609375	0.447509765625	0.903564453125	2.6717557251908395	0.030534351145038167	0.8396946564885496	0.0	0.0	0.0
2017-08-17 17:54:16.748243	lat	lng	0.025390625	0.445068359375	0.902587890625	2.8396946564885495	-0.015267175572519083	0.7786259541984732	0.0	0.0	0.0
2017-08-17 17:54:16.770087	lat	lng	0.023681640625	0.444091796875	0.906494140625	2.2290076335877864	-0.1984732824427481	0.7938931297709924	0.0	0.0	0.0
2017-08-17 17:54:16.791137	lat	lng	0.031005859375	0.447509765625	0.900390625	2.4732824427480917	0.21374045801526717	0.916030534351145	0.0	0.0	0.0
2017-08-17 17:54:16.819747	lat	lng	0.024658203125	0.449951171875	0.90869140625	2.519083969465649	0.0	0.732824427480916	0.0	0.0	0.0
2017-08-17 17:54:16.843813	lat	lng	0.023193359375	0.4453125	0.90966796875	2.7480916030534353	0.13740458015267176	0.8244274809160306	0.0	0.0	0.0
2017-08-17 17:54:16.866761	lat	lng	0.026123046875	0.443603515625	0.90576171875	2.6412213740458017	-3.9083969465648853	0.9618320610687023	0.0	0.0	0.0
2017-08-17 17:54:16.888696	lat	lng	0.0283203125	0.44775390625	0.903564453125	2.717557251908397	0.061068702290076333	0.7480916030534351	0.0	0.0	0.0
2017-08-17 17:54:16.910217	lat	lng	0.028564453125	0.44482421875	0.90185546875	2.4580152671755724	3.8931297709923665	0.916030534351145	0.0	0.0	0.0
2017-08-17 17:54:16.931286	lat	lng	0.025146484375	0.447021484375	0.908935546875	2.4580152671755724	-0.0916030534351145	0.7786259541984732	0.0	0.0	0.0
2017-08-17 17:54:16.952956	lat	lng	0.025634765625	0.444091796875	0.908447265625	2.687022900763359	-0.13740458015267176	0.9312977099236641	0.0	0.0	0.0
2017-08-17 17:54:16.974599	lat	lng	0.023193359375	0.443115234375	0.904052734375	2.5801526717557253	0.3053435114503817	0.6717557251908397	0.0	0.0	0.0
2017-08-17 17:54:16.997359	lat	lng	0.025634765625	0.442138671875	0.90869140625	2.3969465648854964	3.83206106870229	0.8702290076335878	0.0	0.0	0.0
2017-08-17 17:54:17.023364	lat	lng	0.02734375	0.444091796875	0.90087890625	2.6259541984732824	-0.24427480916030533	0.9007633587786259	0.0	0.0	0.0
2017-08-17 17:54:17.045291	lat	lng	0.02587890625	0.448974609375	0.906494140625	2.5343511450381677	0.10687022900763359	0.8854961832061069	0.0	0.0	0.0
2017-08-17 17:54:17.067560	lat	lng	0.019287109375	0.44677734375	0.905517578125	2.6106870229007635	-0.061068702290076333	0.8396946564885496	0.0	0.0	0.0
2017-08-17 17:54:17.090049	lat	lng	0.023681640625	0.44580078125	0.904296875	2.6717557251908395	0.04580152671755725	0.9465648854961832	0.0	0.0	0.0
2017-08-17 17:54:17.116173	lat	lng	0.02685546875	0.443115234375	0.897705078125	2.5343511450381677	-0.04580152671755725	0.5801526717557252	0.0	0.0	0.0
2017-08-17 17:54:17.138875	lat	lng	0.025634765625	0.4462890625	0.9072265625	2.50381679389313	-0.15267175572519084	0.9618320610687023	0.0	0.0	0.0
2017-08-17 17:54:17.160602	lat	lng	0.025634765625	0.4482421875	0.90234375	2.6259541984732824	3.877862595419847	0.7938931297709924	0.0	0.0	0.0
2017-08-17 17:54:17.181350	lat	lng	0.025146484375	0.4462890625	0.908447265625	2.5343511450381677	0.10687022900763359	0.6717557251908397	0.0	0.0	0.0
2017-08-17 17:54:17.202249	lat	lng	0.0224609375	0.447509765625	0.90380859375	2.9160305343511452	0.07633587786259542	0.6870229007633588	0.0	0.0	0.0
2017-08-17 17:54:17.223428	lat	lng	0.0234375	0.44921875	0.90478515625	2.6717557251908395	0.15267175572519084	0.916030534351145	0.0	0.0	0.0
2017-08-17 17:54:17.244054	lat	lng	0.024169921875	0.44287109375	0.905517578125	2.427480916030534	-0.13740458015267176	0.7786259541984732	0.0	0.0	0.0
2017-08-17 17:54:17.264406	lat	lng	0.023681640625	0.44189453125	0.880615234375	2.564885496183206	-0.2748091603053435	0.8396946564885496	0.0	0.0	0.0
2017-08-17 17:54:17.285031	lat	lng	0.026611328125	0.445068359375	0.89892578125	2.519083969465649	-0.07633587786259542	0.732824427480916	0.0	0.0	0.0
2017-08-17 17:54:17.305445	lat	lng	0.025634765625	0.443359375	0.90283203125	2.4580152671755724	-0.12213740458015267	0.9618320610687023	0.0	0.0	0.0
2017-08-17 17:54:17.326133	lat	lng	0.0234375	0.446533203125	0.8994140625	2.4732824427480917	-0.030534351145038167	0.9770992366412213	0.0	0.0	0.0
2017-08-17 17:54:17.346575	lat	lng	0.02734375	0.447509765625	0.905029296875	2.549618320610687	0.16793893129770993	0.8549618320610687	0.0	0.0	0.0
2017-08-17 17:54:17.367219	lat	lng	0.0244140625	0.444091796875	0.910400390625	2.381679389312977	0.16793893129770993	0.7786259541984732	0.0	0.0	0.0
2017-08-17 17:54:17.387670	lat	lng	0.0263671875	0.44775390625	0.90673828125	2.6259541984732824	0.13740458015267176	0.7175572519083969	0.0	0.0	0.0
2017-08-17 17:54:17.408293	lat	lng	0.026123046875	0.443603515625	0.90234375	2.50381679389313	-0.0916030534351145	0.8549618320610687	0.0	0.0	0.0
2017-08-17 17:54:17.428826	lat	lng	0.0263671875	0.4482421875	0.91015625	2.595419847328244	-0.07633587786259542	0.916030534351145	0.0	0.0	0.0
2017-08-17 17:54:17.449243	lat	lng	0.02490234375	0.446533203125	0.90673828125	2.4122137404580153	-0.07633587786259542	0.8702290076335878	0.0	0.0	0.0
2017-08-17 17:54:17.469604	lat	lng	0.027099609375	0.44970703125	0.90771484375	2.7022900763358777	-0.10687022900763359	0.7938931297709924	0.0	0.0	0.0
2017-08-17 17:54:17.490146	lat	lng	0.0234375	0.44384765625	0.904541015625	2.6717557251908395	-0.15267175572519084	0.7022900763358778	0.0	0.0	0.0
2017-08-17 17:54:17.510418	lat	lng	0.024169921875	0.446044921875	0.901611328125	2.519083969465649	0.04580152671755725	0.549618320610687	0.0	0.0	0.0
2017-08-17 17:54:17.530677	lat	lng	0.025390625	0.4453125	0.904296875	2.6259541984732824	-0.061068702290076333	0.9465648854961832	0.0	0.0	0.0
2017-08-17 17:54:17.550924	lat	lng	0.02490234375	0.444580078125	0.9072265625	2.6259541984732824	-0.2748091603053435	0.6412213740458015	0.0	0.0	0.0
2017-08-17 17:54:17.571519	lat	lng	0.0263671875	0.447021484375	0.904296875	2.564885496183206	-0.183206106870229	0.7480916030534351	0.0	0.0	0.0
2017-08-17 17:54:17.591862	lat	lng	0.02587890625	0.44677734375	0.901611328125	2.3053435114503817	-0.10687022900763359	0.9770992366412213	0.0	0.0	0.0
2017-08-17 17:54:17.614495	lat	lng	0.027587890625	0.445068359375	0.875	2.519083969465649	-0.15267175572519084	0.6412213740458015	0.0	0.0	0.0
2017-08-17 17:54:17.634765	lat	lng	0.02587890625	0.448486328125	0.904541015625	2.717557251908397	3.8931297709923665	0.9465648854961832	0.0	0.0	0.0
2017-08-17 17:54:17.655177	lat	lng	0.02880859375	0.44482421875	0.9072265625	2.6717557251908395	0.16793893129770993	0.8702290076335878	0.0	0.0	0.0
2017-08-17 17:54:17.675656	lat	lng	0.02587890625	0.445556640625	0.91162109375	2.6106870229007635	-0.030534351145038167	0.6870229007633588	0.0	0.0	0.0
2017-08-17 17:54:17.696259	lat	lng	0.02490234375	0.445556640625	0.905517578125	2.8091603053435112	-0.22900763358778625	0.8854961832061069	0.0	0.0	0.0
2017-08-17 17:54:17.716640	lat	lng	0.026611328125	0.446533203125	0.9111328125	2.5343511450381677	-0.42748091603053434	0.8854961832061069	0.0	0.0	0.0
2017-08-17 17:54:17.737047	lat	lng	0.023681640625	0.44677734375	0.90234375	2.687022900763359	-0.04580152671755725	0.916030534351145	0.0	0.0	0.0
2017-08-17 17:54:17.757569	lat	lng	0.025634765625	0.4443359375	0.897216796875	2.4427480916030535	-0.061068702290076333	0.8702290076335878	0.0	0.0	0.0
2017-08-17 17:54:17.778316	lat	lng	0.0224609375	0.4462890625	0.909912109375	2.6564885496183206	0.10687022900763359	0.916030534351145	0.0	0.0	0.0
2017-08-17 17:54:17.798973	lat	lng	0.026123046875	0.4443359375	0.90185546875	2.6412213740458017	-0.16793893129770993	0.9312977099236641	0.0	0.0	0.0
2017-08-17 17:54:17.821187	lat	lng	0.02587890625	0.443115234375	0.903076171875	2.549618320610687	0.21374045801526717	0.9923664122137404	0.0	0.0	0.0
2017-08-17 17:54:17.842547	lat	lng	0.028076171875	0.443115234375	0.9013671875	2.3053435114503817	-3.9083969465648853	0.8549618320610687	0.0	0.0	0.0
2017-08-17 17:54:17.864121	lat	lng	0.02587890625	0.4453125	0.904541015625	2.50381679389313	0.030534351145038167	0.7938931297709924	0.0	0.0	0.0
2017-08-17 17:54:17.885980	lat	lng	0.02490234375	0.446044921875	0.904052734375	2.564885496183206	3.8931297709923665	0.7786259541984732	0.0	0.0	0.0
2017-08-17 17:54:17.903147	lat	lng	0.02734375	0.447998046875	0.906982421875	2.6717557251908395	3.8931297709923665	0.916030534351145	0.0	0.0	0.0
2017-08-17 17:54:17.921206	lat	lng	0.0234375	0.445556640625	0.908447265625	2.519083969465649	-0.10687022900763359	0.8244274809160306	0.0	0.0	0.0
2017-08-17 17:54:17.937576	lat	lng	0.02197265625	0.446044921875	0.90771484375	2.6717557251908395	-0.0916030534351145	0.7175572519083969	0.0	0.0	0.0
2017-08-17 17:54:17.959123	lat	lng	0.021728515625	0.447509765625	0.90283203125	2.7786259541984735	-3.9083969465648853	0.5801526717557252	0.0	0.0	0.0
2017-08-17 17:54:17.975585	lat	lng	0.0234375	0.44677734375	0.903076171875	2.6717557251908395	0.030534351145038167	0.6412213740458015	0.0	0.0	0.0
2017-08-17 17:54:17.993916	lat	lng	0.0244140625	0.443115234375	0.90673828125	2.8244274809160306	0.07633587786259542	0.8244274809160306	0.0	0.0	0.0
2017-08-17 17:54:18.012531	lat	lng	0.025634765625	0.446044921875	0.906494140625	2.6106870229007635	-0.12213740458015267	0.8396946564885496	0.0	0.0	0.0
2017-08-17 17:54:18.030649	lat	lng	0.029296875	0.447021484375	0.911376953125	2.4580152671755724	0.2595419847328244	0.7938931297709924	0.0	0.0	0.0
2017-08-17 17:54:18.048384	lat	lng	0.026123046875	0.44482421875	0.904541015625	2.3969465648854964	-0.13740458015267176	0.916030534351145	0.0	0.0	0.0
2017-08-17 17:54:18.066162	lat	lng	0.021484375	0.4462890625	0.90771484375	2.4732824427480917	-0.07633587786259542	0.8854961832061069	0.0	0.0	0.0
2017-08-17 17:54:18.083176	lat	lng	0.024169921875	0.4462890625	0.902099609375	2.5343511450381677	-0.07633587786259542	0.7938931297709924	0.0	0.0	0.0
2017-08-17 17:54:18.102890	lat	lng	0.025146484375	0.443603515625	0.90380859375	2.351145038167939	-0.2595419847328244	0.8091603053435115	0.0	0.0	0.0
2017-08-17 17:54:18.120610	lat	lng	0.0263671875	0.44921875	0.90576171875	2.4427480916030535	3.8931297709923665	1.0534351145038168	0.0	0.0	0.0
2017-08-17 17:54:18.139147	lat	lng	0.023681640625	0.4482421875	0.9033203125	2.50381679389313	-0.16793893129770993	0.7786259541984732	0.0	0.0	0.0
2017-08-17 17:54:18.156980	lat	lng	0.0263671875	0.442626953125	0.90234375	2.33587786259542	-0.061068702290076333	0.7633587786259542	0.0	0.0	0.0
2017-08-17 17:54:18.174823	lat	lng	0.021240234375	0.4453125	0.90966796875	2.519083969465649	-0.2900763358778626	0.7175572519083969	0.0	0.0	0.0
2017-08-17 17:54:18.192652	lat	lng	0.026611328125	0.448486328125	0.915771484375	2.4732824427480917	-0.07633587786259542	1.0687022900763359	0.0	0.0	0.0
2017-08-17 17:54:18.210038	lat	lng	0.02197265625	0.446533203125	0.90625	3.0381679389312977	0.0	0.7938931297709924	0.0	0.0	0.0
2017-08-17 17:54:18.226986	lat	lng	0.02294921875	0.44287109375	0.90185546875	2.519083969465649	0.13740458015267176	0.6259541984732825	0.0	0.0	0.0
2017-08-17 17:54:18.243868	lat	lng	0.025146484375	0.444091796875	0.9091796875	2.427480916030534	0.16793893129770993	0.916030534351145	0.0	0.0	0.0
2017-08-17 17:54:18.260714	lat	lng	0.0244140625	0.447021484375	0.9033203125	2.564885496183206	-0.015267175572519083	1.1450381679389312	0.0	0.0	0.0
2017-08-17 17:54:18.277606	lat	lng	0.023681640625	0.444091796875	0.90234375	2.7786259541984735	0.12213740458015267	0.916030534351145	0.0	0.0	0.0
2017-08-17 17:54:18.294496	lat	lng	0.026611328125	0.44384765625	0.910400390625	2.5801526717557253	0.16793893129770993	0.7938931297709924	0.0	0.0	0.0
2017-08-17 17:54:18.311326	lat	lng	0.026123046875	0.4453125	0.900390625	2.595419847328244	-0.22900763358778625	0.7633587786259542	0.0	0.0	0.0
2017-08-17 17:54:18.328192	lat	lng	0.027099609375	0.444091796875	0.89306640625	2.7480916030534353	-0.061068702290076333	0.6870229007633588	0.0	0.0	0.0
2017-08-17 17:54:18.345251	lat	lng	0.028076171875	0.443603515625	0.912109375	2.6259541984732824	-0.15267175572519084	0.8549618320610687	0.0	0.0	0.0
2017-08-17 17:54:18.362160	lat	lng	0.029296875	0.4423828125	0.906494140625	2.7786259541984735	-0.1984732824427481	0.916030534351145	0.0	0.0	0.0
2017-08-17 17:54:18.379054	lat	lng	0.02490234375	0.44775390625	0.93505859375	2.549618320610687	0.07633587786259542	0.9312977099236641	0.0	0.0	0.0
2017-08-17 17:54:18.396039	lat	lng	0.024658203125	0.44580078125	0.8779296875	2.595419847328244	-0.10687022900763359	0.8091603053435115	0.0	0.0	0.0
2017-08-17 17:54:18.412924	lat	lng	0.02490234375	0.4453125	0.908203125	2.595419847328244	-0.1984732824427481	0.6717557251908397	0.0	0.0	0.0
2017-08-17 17:54:18.429778	lat	lng	0.024658203125	0.440185546875	0.90869140625	2.4732824427480917	0.07633587786259542	1.1603053435114503	0.0	0.0	0.0
2017-08-17 17:54:18.446745	lat	lng	0.026611328125	0.447265625	0.90576171875	2.5801526717557253	-0.030534351145038167	0.9770992366412213	0.0	0.0	0.0
2017-08-17 17:54:18.463626	lat	lng	0.025390625	0.4462890625	0.89990234375	2.4732824427480917	0.13740458015267176	0.6717557251908397	0.0	0.0	0.0
2017-08-17 17:54:18.480480	lat	lng	0.0283203125	0.446533203125	0.904541015625	2.6564885496183206	-3.9083969465648853	0.9007633587786259	0.0	0.0	0.0
2017-08-17 17:54:18.497330	lat	lng	0.02001953125	0.44775390625	0.900390625	2.33587786259542	0.13740458015267176	0.6717557251908397	0.0	0.0	0.0
2017-08-17 17:54:18.515275	lat	lng	0.023193359375	0.44677734375	0.9091796875	2.519083969465649	0.10687022900763359	0.7786259541984732	0.0	0.0	0.0
2017-08-17 17:54:18.532154	lat	lng	0.02587890625	0.44482421875	0.906494140625	2.33587786259542	0.2595419847328244	0.7786259541984732	0.0	0.0	0.0
2017-08-17 17:54:18.549027	lat	lng	0.025634765625	0.450439453125	0.914794921875	2.763358778625954	0.015267175572519083	0.8244274809160306	0.0	0.0	0.0
2017-08-17 17:54:18.565953	lat	lng	0.02880859375	0.44091796875	0.907958984375	2.717557251908397	-0.1984732824427481	0.7480916030534351	0.0	0.0	0.0
2017-08-17 17:54:18.582992	lat	lng	0.027099609375	0.446533203125	0.933837890625	2.4427480916030535	-0.16793893129770993	0.8854961832061069	0.0	0.0	0.0
2017-08-17 17:54:18.601884	lat	lng	0.025634765625	0.4443359375	0.9072265625	2.351145038167939	-0.07633587786259542	0.916030534351145	0.0	0.0	0.0
2017-08-17 17:54:18.623600	lat	lng	0.029541015625	0.4443359375	0.901123046875	2.381679389312977	0.015267175572519083	0.8396946564885496	0.0	0.0	0.0
2017-08-17 17:54:18.644873	lat	lng	0.025634765625	0.447998046875	0.906005859375	2.4885496183206106	0.015267175572519083	0.7480916030534351	0.0	0.0	0.0
2017-08-17 17:54:18.666410	lat	lng	0.021728515625	0.444091796875	0.90478515625	2.4580152671755724	-0.030534351145038167	0.8549618320610687	0.0	0.0	0.0
2017-08-17 17:54:18.687823	lat	lng	0.023193359375	0.44384765625	0.908447265625	2.427480916030534	0.13740458015267176	0.7022900763358778	0.0	0.0	0.0
2017-08-17 17:54:18.709130	lat	lng	0.023681640625	0.447509765625	0.90576171875	2.732824427480916	0.12213740458015267	0.6106870229007634	0.0	0.0	0.0
2017-08-17 17:54:18.730410	lat	lng	0.02294921875	0.444580078125	0.904052734375	2.6259541984732824	-0.07633587786259542	1.0687022900763359	0.0	0.0	0.0
2017-08-17 17:54:18.752065	lat	lng	0.0234375	0.44775390625	0.90625	2.6412213740458017	0.0	0.9312977099236641	0.0	0.0	0.0
2017-08-17 17:54:18.773424	lat	lng	0.0263671875	0.443603515625	0.90771484375	2.687022900763359	-0.12213740458015267	0.7480916030534351	0.0	0.0	0.0
2017-08-17 17:54:18.794873	lat	lng	0.02490234375	0.4443359375	0.904296875	2.50381679389313	-0.061068702290076333	0.7938931297709924	0.0	0.0	0.0
2017-08-17 17:54:18.817804	lat	lng	0.0224609375	0.440185546875	0.90966796875	2.595419847328244	-0.030534351145038167	0.9007633587786259	0.0	0.0	0.0
2017-08-17 17:54:18.841551	lat	lng	0.025146484375	0.446533203125	0.905029296875	2.732824427480916	0.030534351145038167	0.9618320610687023	0.0	0.0	0.0
2017-08-17 17:54:18.866070	lat	lng	0.02490234375	0.44287109375	0.910400390625	2.6564885496183206	0.04580152671755725	0.8854961832061069	0.0	0.0	0.0
2017-08-17 17:54:18.887136	lat	lng	0.0244140625	0.44677734375	0.875244140625	2.4122137404580153	-0.015267175572519083	0.7175572519083969	0.0	0.0	0.0
2017-08-17 17:54:18.908738	lat	lng	0.02392578125	0.447265625	0.911865234375	2.687022900763359	-0.04580152671755725	0.8549618320610687	0.0	0.0	0.0
2017-08-17 17:54:18.928894	lat	lng	0.02001953125	0.447265625	0.91015625	2.4580152671755724	0.07633587786259542	0.9618320610687023	0.0	0.0	0.0
2017-08-17 17:54:18.949092	lat	lng	0.025390625	0.447509765625	0.90576171875	2.6412213740458017	-0.12213740458015267	0.8854961832061069	0.0	0.0	0.0
2017-08-17 17:54:18.969297	lat	lng	0.022705078125	0.446533203125	0.904296875	2.6412213740458017	-0.061068702290076333	0.732824427480916	0.0	0.0	0.0
2017-08-17 17:54:18.989548	lat	lng	0.023193359375	0.44580078125	0.9091796875	2.717557251908397	0.0	0.8244274809160306	0.0	0.0	0.0
2017-08-17 17:54:19.010028	lat	lng	0.02392578125	0.444091796875	0.9111328125	2.6564885496183206	-0.12213740458015267	0.7175572519083969	0.0	0.0	0.0
2017-08-17 17:54:19.030249	lat	lng	0.02392578125	0.443603515625	0.908447265625	2.6564885496183206	0.22900763358778625	0.916030534351145	0.0	0.0	0.0
2017-08-17 17:54:19.050641	lat	lng	0.0244140625	0.44677734375	0.900390625	2.351145038167939	0.015267175572519083	0.8244274809160306	0.0	0.0	0.0
2017-08-17 17:54:19.070850	lat	lng	0.028076171875	0.44677734375	0.901611328125	2.4885496183206106	-0.04580152671755725	0.7786259541984732	0.0	0.0	0.0
2017-08-17 17:54:19.091208	lat	lng	0.02294921875	0.44580078125	0.90673828125	2.5343511450381677	-0.030534351145038167	0.7938931297709924	0.0	0.0	0.0
2017-08-17 17:54:19.113206	lat	lng	0.02734375	0.450927734375	0.906982421875	2.5801526717557253	-0.3053435114503817	0.7022900763358778	0.0	0.0	0.0
2017-08-17 17:54:19.135397	lat	lng	0.026123046875	0.446044921875	0.90185546875	2.6259541984732824	3.877862595419847	0.8091603053435115	0.0	0.0	0.0
2017-08-17 17:54:19.157564	lat	lng	0.025390625	0.44677734375	0.901123046875	2.549618320610687	-0.22900763358778625	0.9618320610687023	0.0	0.0	0.0
2017-08-17 17:54:19.179955	lat	lng	0.023681640625	0.448974609375	0.903564453125	2.6564885496183206	-0.030534351145038167	0.6870229007633588	0.0	0.0	0.0
2017-08-17 17:54:19.201959	lat	lng	0.022705078125	0.44775390625	0.910400390625	2.427480916030534	-0.10687022900763359	1.0076335877862594	0.0	0.0	0.0
2017-08-17 17:54:19.224620	lat	lng	0.0263671875	0.443603515625	0.905517578125	2.5343511450381677	-0.07633587786259542	0.7633587786259542	0.0	0.0	0.0
2017-08-17 17:54:19.246476	lat	lng	0.028076171875	0.445068359375	0.910400390625	2.7480916030534353	-0.33587786259541985	0.6412213740458015	0.0	0.0	0.0
2017-08-17 17:54:19.266723	lat	lng	0.025146484375	0.444091796875	0.907958984375	2.564885496183206	-0.015267175572519083	0.7175572519083969	0.0	0.0	0.0
2017-08-17 17:54:19.287055	lat	lng	0.023681640625	0.4462890625	0.90283203125	2.564885496183206	0.183206106870229	0.7938931297709924	0.0	0.0	0.0
2017-08-17 17:54:19.307672	lat	lng	0.026123046875	0.4443359375	0.90234375	2.4580152671755724	-0.0916030534351145	0.8396946564885496	0.0	0.0	0.0
2017-08-17 17:54:19.327966	lat	lng	0.025146484375	0.441650390625	0.9052734375	2.7786259541984735	-0.0916030534351145	0.7786259541984732	0.0	0.0	0.0
2017-08-17 17:54:19.348277	lat	lng	0.023681640625	0.4462890625	0.908203125	2.595419847328244	-0.0916030534351145	0.7938931297709924	0.0	0.0	0.0
2017-08-17 17:54:19.368477	lat	lng	0.025146484375	0.44677734375	0.90185546875	2.564885496183206	0.0916030534351145	0.7633587786259542	0.0	0.0	0.0
2017-08-17 17:54:19.389058	lat	lng	0.02490234375	0.444580078125	0.906005859375	2.7480916030534353	-0.0916030534351145	0.7938931297709924	0.0	0.0	0.0
2017-08-17 17:54:19.409623	lat	lng	0.02490234375	0.446044921875	0.9072265625	2.4885496183206106	0.04580152671755725	0.9312977099236641	0.0	0.0	0.0
2017-08-17 17:54:19.430168	lat	lng	0.023681640625	0.4453125	0.90576171875	2.50381679389313	-0.061068702290076333	0.7480916030534351	0.0	0.0	0.0
2017-08-17 17:54:19.450635	lat	lng	0.025146484375	0.447998046875	0.904541015625	2.549618320610687	0.07633587786259542	0.8396946564885496	0.0	0.0	0.0
2017-08-17 17:54:19.471168	lat	lng	0.0224609375	0.444580078125	0.901611328125	2.4427480916030535	0.061068702290076333	0.916030534351145	0.0	0.0	0.0
2017-08-17 17:54:19.491619	lat	lng	0.023681640625	0.44775390625	0.896728515625	2.6717557251908395	3.83206106870229	0.9465648854961832	0.0	0.0	0.0
2017-08-17 17:54:19.512619	lat	lng	0.02490234375	0.44970703125	0.913818359375	2.6717557251908395	0.0916030534351145	0.9007633587786259	0.0	0.0	0.0
2017-08-17 17:54:19.536533	lat	lng	0.02197265625	0.449462890625	0.902099609375	2.6717557251908395	0.0	0.9618320610687023	0.0	0.0	0.0
2017-08-17 17:54:19.559725	lat	lng	0.026123046875	0.4423828125	0.911376953125	2.687022900763359	-0.07633587786259542	0.6259541984732825	0.0	0.0	0.0
2017-08-17 17:54:19.583296	lat	lng	0.021728515625	0.447265625	0.90771484375	2.519083969465649	0.0916030534351145	0.7633587786259542	0.0	0.0	0.0
