Time	Position_lat	Position_lng	Accelerometer_x	Accelerometer_y	Accelerometer_z	Gyroscope_x	Gyroscope_y	Gyroscope_z	Magnetometer_x	Magnetometer_y	Magnetometer_z
2017-08-17 18:12:40.026822	lat	lng	0.009521484375	0.01025390625	0.993408203125	2.732824427480916	-0.10687022900763359	0.8396946564885496	144.6	120.6	-52.199999999999996
2017-08-17 18:12:40.055867	lat	lng	0.01416015625	0.012939453125	0.9990234375	2.732824427480916	-3.9083969465648853	0.7480916030534351	144.6	120.6	-52.199999999999996
2017-08-17 18:12:40.075605	lat	lng	0.010986328125	0.010986328125	1.00048828125	2.7786259541984735	-0.24427480916030533	0.7938931297709924	144.6	120.6	-52.199999999999996
2017-08-17 18:12:40.093326	lat	lng	0.0107421875	0.01318359375	0.997802734375	2.6106870229007635	-0.10687022900763359	0.8091603053435115	144.6	120.6	-52.199999999999996
2017-08-17 18:12:40.111969	lat	lng	0.009521484375	0.01513671875	1.00341796875	2.5343511450381677	0.13740458015267176	0.7480916030534351	144.6	120.6	-52.199999999999996
2017-08-17 18:12:40.128706	lat	lng	0.00732421875	0.0166015625	0.99658203125	2.6106870229007635	0.04580152671755725	0.5038167938931297	144.6	120.6	-52.199999999999996
2017-08-17 18:12:40.146037	lat	lng	0.011474609375	0.015625	0.99658203125	2.549618320610687	-0.0916030534351145	0.8244274809160306	144.6	120.6	-52.199999999999996
2017-08-17 18:12:40.163118	lat	lng	0.01171875	0.013427734375	1.00146484375	2.6106870229007635	-0.16793893129770993	0.6106870229007634	144.6	120.6	-52.199999999999996
2017-08-17 18:12:40.179698	lat	lng	0.01220703125	0.016845703125	0.99755859375	2.427480916030534	-0.22900763358778625	0.9618320610687023	144.6	120.6	-52.199999999999996
2017-08-17 18:12:40.202409	lat	lng	0.00927734375	0.013671875	1.0	2.717557251908397	-0.07633587786259542	0.7938931297709924	144.6	120.6	-52.199999999999996
2017-08-17 18:12:40.222444	lat	lng	0.008056640625	0.013671875	1.0	2.50381679389313	0.16793893129770993	0.7786259541984732	144.6	120.6	-52.199999999999996
2017-08-17 18:12:40.240899	lat	lng	0.0107421875	0.015869140625	0.99853515625	2.7022900763358777	0.13740458015267176	0.7480916030534351	144.6	120.6	-52.199999999999996
2017-08-17 18:12:40.259297	lat	lng	0.011474609375	0.01806640625	1.0	2.687022900763359	-0.22900763358778625	0.6717557251908397	144.6	120.6	-52.199999999999996
2017-08-17 18:12:40.277504	lat	lng	0.01123046875	0.01513671875	0.994873046875	2.6564885496183206	0.13740458015267176	0.5801526717557252	144.6	120.6	-52.199999999999996
2017-08-17 18:12:40.295961	lat	lng	0.006103515625	0.0126953125	0.997802734375	2.717557251908397	-0.04580152671755725	0.7786259541984732	144.6	120.6	-52.199999999999996
2017-08-17 18:12:40.313525	lat	lng	0.008544921875	0.013671875	0.998779296875	2.595419847328244	0.04580152671755725	0.7786259541984732	144.6	120.6	-52.199999999999996
2017-08-17 18:12:40.332470	lat	lng	0.008544921875	0.01513671875	0.999755859375	2.6106870229007635	-0.13740458015267176	0.6259541984732825	144.6	120.6	-52.199999999999996
2017-08-17 18:12:40.350202	lat	lng	0.013427734375	0.015869140625	0.999755859375	2.6412213740458017	-0.16793893129770993	0.8091603053435115	144.6	120.6	-52.199999999999996
2017-08-17 18:12:40.369174	lat	lng	0.011962890625	0.01416015625	0.99755859375	2.6564885496183206	-0.12213740458015267	0.7786259541984732	144.6	120.6	-52.199999999999996
2017-08-17 18:12:40.387049	lat	lng	0.009765625	0.013916015625	1.006591796875	2.4885496183206106	-0.2900763358778626	0.732824427480916	144.6	120.6	-52.199999999999996
2017-08-17 18:12:40.406327	lat	lng	0.010986328125	0.013916015625	1.002685546875	2.8702290076335877	-0.15267175572519084	0.9312977099236641	144.6	120.6	-52.199999999999996
2017-08-17 18:12:40.427748	lat	lng	0.01171875	0.01611328125	1.00146484375	2.50381679389313	-0.3053435114503817	0.8396946564885496	144.6	120.6	-52.199999999999996
2017-08-17 18:12:40.445072	lat	lng	0.009765625	0.014892578125	1.006591796875	2.6564885496183206	-0.16793893129770993	0.6259541984732825	144.6	120.6	-52.199999999999996
2017-08-17 18:12:40.463561	lat	lng	0.012451171875	0.01123046875	1.00634765625	2.5343511450381677	-0.15267175572519084	0.9007633587786259	144.6	120.6	-52.199999999999996
2017-08-17 18:12:40.481273	lat	lng	0.014404296875	0.0126953125	0.99755859375	2.6717557251908395	-0.1984732824427481	0.8244274809160306	144.6	120.6	-52.199999999999996
2017-08-17 18:12:40.499999	lat	lng	0.01025390625	0.013916015625	1.012451171875	2.50381679389313	0.015267175572519083	0.7786259541984732	144.6	120.6	-52.199999999999996
2017-08-17 18:12:40.518960	lat	lng	0.01123046875	0.013671875	1.00244140625	2.7022900763358777	-0.015267175572519083	0.6870229007633588	144.6	120.6	-52.199999999999996
2017-08-17 18:12:40.542286	lat	lng	0.007568359375	0.014892578125	1.001220703125	2.519083969465649	-0.2900763358778626	0.5648854961832062	144.6	120.6	-52.199999999999996
2017-08-17 18:12:40.561284	lat	lng	0.0107421875	0.01220703125	1.0048828125	2.7022900763358777	-0.061068702290076333	0.7022900763358778	144.6	120.6	-52.199999999999996
2017-08-17 18:12:40.585308	lat	lng	0.011474609375	0.014892578125	0.99853515625	2.717557251908397	-0.061068702290076333	0.8549618320610687	144.6	120.6	-52.199999999999996
2017-08-17 18:12:40.610127	lat	lng	0.013427734375	0.015380859375	0.97021484375	2.549618320610687	-0.04580152671755725	0.9007633587786259	144.6	120.6	-52.199999999999996
2017-08-17 18:12:40.635713	lat	lng	0.006591796875	0.01513671875	1.00146484375	2.717557251908397	-0.2595419847328244	0.6870229007633588	144.6	120.6	-52.199999999999996
2017-08-17 18:12:40.656727	lat	lng	0.009765625	0.016357421875	0.999755859375	2.7786259541984735	0.061068702290076333	0.9465648854961832	144.6	120.6	-52.199999999999996
2017-08-17 18:12:40.673873	lat	lng	0.0126953125	0.014892578125	1.003662109375	2.564885496183206	-3.9083969465648853	0.8549618320610687	144.6	120.6	-52.199999999999996
2017-08-17 18:12:40.690745	lat	lng	0.008056640625	0.01220703125	1.008056640625	2.763358778625954	-0.04580152671755725	0.7175572519083969	144.6	120.6	-52.199999999999996
2017-08-17 18:12:40.709074	lat	lng	0.010498046875	0.014404296875	1.004150390625	2.7786259541984735	-0.21374045801526717	0.8702290076335878	144.6	120.6	-52.199999999999996
2017-08-17 18:12:40.727731	lat	lng	0.00390625	0.01318359375	0.9990234375	2.6106870229007635	0.061068702290076333	0.8549618320610687	144.6	120.6	-52.199999999999996
2017-08-17 18:12:40.747141	lat	lng	0.009521484375	0.010986328125	1.003662109375	2.6717557251908395	0.030534351145038167	0.44274809160305345	144.6	120.6	-52.199999999999996
2017-08-17 18:12:40.769240	lat	lng	0.010498046875	0.013427734375	0.999267578125	2.50381679389313	-3.8931297709923665	0.9007633587786259	144.6	120.6	-52.199999999999996
2017-08-17 18:12:40.787778	lat	lng	0.012939453125	0.010498046875	0.99462890625	2.7022900763358777	0.0916030534351145	0.7480916030534351	144.6	120.6	-52.199999999999996
2017-08-17 18:12:40.805534	lat	lng	0.012939453125	0.013427734375	1.005126953125	2.8396946564885495	-0.061068702290076333	0.8091603053435115	144.6	120.6	-52.199999999999996
2017-08-17 18:12:40.822631	lat	lng	0.014404296875	0.0107421875	1.001953125	2.4580152671755724	-0.10687022900763359	0.6412213740458015	144.6	120.6	-52.199999999999996
2017-08-17 18:12:40.841654	lat	lng	0.008544921875	0.015380859375	1.003662109375	2.549618320610687	-0.061068702290076333	0.8244274809160306	144.6	120.6	-52.199999999999996
2017-08-17 18:12:40.858180	lat	lng	0.010009765625	0.016357421875	1.00439453125	2.5801526717557253	0.10687022900763359	0.7786259541984732	144.6	120.6	-52.199999999999996
2017-08-17 18:12:40.875556	lat	lng	0.007568359375	0.01416015625	1.0	2.732824427480916	0.04580152671755725	0.6106870229007634	144.6	120.6	-52.199999999999996
2017-08-17 18:12:40.893070	lat	lng	0.006591796875	0.014892578125	1.00048828125	2.564885496183206	-0.12213740458015267	0.7786259541984732	144.6	120.6	-52.199999999999996
2017-08-17 18:12:40.913191	lat	lng	0.011474609375	0.017822265625	1.00146484375	2.4732824427480917	0.04580152671755725	0.8702290076335878	144.6	120.6	-52.199999999999996
2017-08-17 18:12:40.932234	lat	lng	0.011474609375	0.016357421875	1.00146484375	2.564885496183206	0.015267175572519083	0.7633587786259542	144.6	120.6	-52.199999999999996
2017-08-17 18:12:40.950365	lat	lng	0.0078125	0.0126953125	1.0029296875	2.8396946564885495	-0.04580152671755725	0.7786259541984732	144.6	120.6	-52.199999999999996
2017-08-17 18:12:40.972931	lat	lng	0.0126953125	0.0126953125	1.00390625	2.549618320610687	-0.10687022900763359	0.7480916030534351	144.6	120.6	-52.199999999999996
2017-08-17 18:12:40.989645	lat	lng	0.00927734375	0.01513671875	1.003662109375	2.763358778625954	0.061068702290076333	0.916030534351145	144.6	120.6	-52.199999999999996
2017-08-17 18:12:41.006424	lat	lng	0.0078125	0.01318359375	1.0048828125	2.6717557251908395	0.10687022900763359	0.9312977099236641	144.6	120.6	-52.199999999999996
2017-08-17 18:12:41.023227	lat	lng	0.011962890625	0.0166015625	1.00439453125	2.6412213740458017	-0.22900763358778625	0.5190839694656488	144.6	120.6	-52.199999999999996
2017-08-17 18:12:41.041457	lat	lng	0.009521484375	0.013916015625	0.998291015625	2.6564885496183206	-0.061068702290076333	0.8854961832061069	144.6	120.6	-52.199999999999996
2017-08-17 18:12:41.059264	lat	lng	0.009521484375	0.01611328125	0.999267578125	2.50381679389313	-0.10687022900763359	0.7786259541984732	144.6	120.6	-52.199999999999996
2017-08-17 18:12:41.084260	lat	lng	0.0107421875	0.017333984375	1.00634765625	2.6259541984732824	-0.2595419847328244	0.7786259541984732	144.6	120.6	-52.199999999999996
2017-08-17 18:12:41.104477	lat	lng	0.013427734375	0.012939453125	0.99267578125	2.7786259541984735	0.04580152671755725	0.5648854961832062	144.6	120.6	-52.199999999999996
2017-08-17 18:12:41.129813	lat	lng	0.009521484375	0.0126953125	1.0	2.6412213740458017	-0.04580152671755725	0.7786259541984732	144.6	120.6	-52.199999999999996
2017-08-17 18:12:41.151690	lat	lng	0.0107421875	0.014404296875	1.000244140625	2.7938931297709924	0.0916030534351145	0.5038167938931297	144.6	120.6	-52.199999999999996
2017-08-17 18:12:41.172334	lat	lng	0.01220703125	0.0126953125	0.99951171875	2.6259541984732824	0.15267175572519084	0.7633587786259542	144.6	120.6	-52.199999999999996
2017-08-17 18:12:41.196126	lat	lng	0.009033203125	0.012451171875	1.001708984375	2.7480916030534353	-0.07633587786259542	0.7175572519083969	144.6	120.6	-52.199999999999996
2017-08-17 18:12:41.213687	lat	lng	0.008544921875	0.01220703125	1.006591796875	2.6259541984732824	0.07633587786259542	0.8396946564885496	144.6	120.6	-52.199999999999996
2017-08-17 18:12:41.232508	lat	lng	0.010498046875	0.01171875	1.000732421875	2.595419847328244	0.13740458015267176	0.5190839694656488	144.6	120.6	-52.199999999999996
2017-08-17 18:12:41.250647	lat	lng	0.01123046875	0.0166015625	0.992431640625	2.5343511450381677	-0.07633587786259542	0.732824427480916	144.6	120.6	-52.199999999999996
2017-08-17 18:12:41.271111	lat	lng	0.00439453125	0.01708984375	1.00439453125	2.7480916030534353	-0.21374045801526717	0.6717557251908397	144.6	120.6	-52.199999999999996
2017-08-17 18:12:41.290017	lat	lng	0.010986328125	0.01318359375	1.00341796875	2.595419847328244	0.183206106870229	0.8091603053435115	144.6	120.6	-52.199999999999996
2017-08-17 18:12:41.307427	lat	lng	0.010009765625	0.014892578125	1.0048828125	2.7480916030534353	-0.15267175572519084	0.732824427480916	144.6	120.6	-52.199999999999996
2017-08-17 18:12:41.324036	lat	lng	0.007568359375	0.01513671875	1.007568359375	2.6259541984732824	-0.183206106870229	0.6717557251908397	144.6	120.6	-52.199999999999996
2017-08-17 18:12:41.341750	lat	lng	0.00927734375	0.01513671875	0.999267578125	2.351145038167939	-0.15267175572519084	0.8244274809160306	144.6	120.6	-52.199999999999996
2017-08-17 18:12:41.358689	lat	lng	0.007080078125	0.01318359375	0.992431640625	2.687022900763359	0.030534351145038167	0.6717557251908397	144.6	120.6	-52.199999999999996
2017-08-17 18:12:41.382532	lat	lng	0.010498046875	0.013427734375	1.0009765625	2.6717557251908395	-0.15267175572519084	0.732824427480916	144.6	120.6	-52.199999999999996
2017-08-17 18:12:41.411175	lat	lng	0.009765625	0.01318359375	0.994873046875	2.7022900763358777	-0.0916030534351145	0.8244274809160306	144.6	120.6	-52.199999999999996
2017-08-17 18:12:41.433462	lat	lng	0.010498046875	0.013427734375	0.999267578125	2.564885496183206	3.8625954198473282	0.7938931297709924	144.6	120.6	-52.199999999999996
2017-08-17 18:12:41.454965	lat	lng	0.010009765625	0.017333984375	0.9970703125	2.3969465648854964	0.030534351145038167	0.549618320610687	144.6	120.6	-52.199999999999996
2017-08-17 18:12:41.476952	lat	lng	0.012939453125	0.0166015625	0.999267578125	2.6717557251908395	-0.04580152671755725	0.6870229007633588	144.6	120.6	-52.199999999999996
2017-08-17 18:12:41.499941	lat	lng	0.0068359375	0.013671875	1.002685546875	2.7022900763358777	0.04580152671755725	0.8549618320610687	144.6	120.6	-52.199999999999996
2017-08-17 18:12:41.525605	lat	lng	0.0107421875	0.016845703125	0.99560546875	2.6106870229007635	-0.04580152671755725	0.8396946564885496	144.6	120.6	-52.199999999999996
2017-08-17 18:12:41.557932	lat	lng	0.00927734375	0.014404296875	1.0	2.6259541984732824	0.04580152671755725	0.7938931297709924	144.6	120.6	-52.199999999999996
2017-08-17 18:12:41.575447	lat	lng	0.012451171875	0.01416015625	1.0009765625	2.3969465648854964	0.0916030534351145	0.7175572519083969	144.6	120.6	-52.199999999999996
2017-08-17 18:12:41.594744	lat	lng	0.010986328125	0.01171875	0.996826171875	2.6106870229007635	0.015267175572519083	0.7175572519083969	144.6	120.6	-52.199999999999996
2017-08-17 18:12:41.613044	lat	lng	0.007568359375	0.015869140625	1.002197265625	2.6564885496183206	-0.12213740458015267	0.6717557251908397	144.6	120.6	-52.199999999999996
2017-08-17 18:12:41.631919	lat	lng	0.010498046875	0.0146484375	1.0048828125	2.6412213740458017	-0.061068702290076333	0.6106870229007634	144.6	120.6	-52.199999999999996
2017-08-17 18:12:41.650543	lat	lng	0.01123046875	0.01513671875	1.001708984375	2.687022900763359	-0.04580152671755725	0.6564885496183206	144.6	120.6	-52.199999999999996
2017-08-17 18:12:41.670271	lat	lng	0.011962890625	0.013916015625	1.0009765625	2.427480916030534	-0.0916030534351145	0.9465648854961832	144.6	120.6	-52.199999999999996
2017-08-17 18:12:41.688950	lat	lng	0.010009765625	0.012451171875	1.00146484375	2.6412213740458017	-0.07633587786259542	0.6106870229007634	144.6	120.6	-52.199999999999996
2017-08-17 18:12:41.708322	lat	lng	0.01318359375	0.016357421875	1.00244140625	2.4732824427480917	-0.2595419847328244	0.5648854961832062	144.6	120.6	-52.199999999999996
2017-08-17 18:12:41.731688	lat	lng	0.011962890625	0.013427734375	1.001953125	2.50381679389313	-0.24427480916030533	0.6412213740458015	144.6	120.6	-52.199999999999996
2017-08-17 18:12:41.750651	lat	lng	0.010986328125	0.01171875	0.99658203125	2.33587786259542	-0.04580152671755725	0.7633587786259542	144.6	120.6	-52.199999999999996
2017-08-17 18:12:41.768826	lat	lng	0.01171875	0.013427734375	1.000244140625	2.717557251908397	-3.9083969465648853	0.7938931297709924	144.6	120.6	-52.199999999999996
2017-08-17 18:12:41.787055	lat	lng	0.011474609375	0.017822265625	1.003662109375	2.427480916030534	0.0916030534351145	0.9007633587786259	144.6	120.6	-52.199999999999996
2017-08-17 18:12:41.810863	lat	lng	0.01416015625	0.01416015625	0.998291015625	2.519083969465649	0.0	0.6412213740458015	144.6	120.6	-52.199999999999996
2017-08-17 18:12:41.828826	lat	lng	0.013916015625	0.016357421875	1.00244140625	2.519083969465649	-0.15267175572519084	0.6412213740458015	144.6	120.6	-52.199999999999996
2017-08-17 18:12:41.847133	lat	lng	0.01025390625	0.015380859375	1.00390625	2.6564885496183206	-0.015267175572519083	0.6259541984732825	144.6	120.6	-52.199999999999996
2017-08-17 18:12:41.865070	lat	lng	0.008544921875	0.017578125	1.00146484375	2.4122137404580153	0.0916030534351145	0.7938931297709924	144.6	120.6	-52.199999999999996
2017-08-17 18:12:41.883061	lat	lng	0.00732421875	0.01220703125	1.0009765625	2.8091603053435112	-0.15267175572519084	0.7633587786259542	144.6	120.6	-52.199999999999996
2017-08-17 18:12:41.900174	lat	lng	0.010498046875	0.01513671875	0.998779296875	2.5343511450381677	-0.16793893129770993	0.6564885496183206	144.6	120.6	-52.199999999999996
2017-08-17 18:12:41.918824	lat	lng	0.009033203125	0.011962890625	1.00390625	2.4122137404580153	-0.22900763358778625	0.7633587786259542	144.6	120.6	-52.199999999999996
2017-08-17 18:12:41.936021	lat	lng	0.01025390625	0.015380859375	1.00146484375	2.3053435114503817	-0.16793893129770993	0.7633587786259542	144.6	120.6	-52.199999999999996
2017-08-17 18:12:41.955150	lat	lng	0.011474609375	0.016357421875	1.003173828125	2.519083969465649	0.030534351145038167	0.8854961832061069	144.6	120.6	-52.199999999999996
2017-08-17 18:12:41.973586	lat	lng	0.008056640625	0.015625	1.001220703125	2.5801526717557253	0.04580152671755725	0.7175572519083969	144.6	120.6	-52.199999999999996
2017-08-17 18:12:41.991673	lat	lng	0.009765625	0.013916015625	0.96875	2.5801526717557253	-0.015267175572519083	0.4122137404580153	144.6	120.6	-52.199999999999996
2017-08-17 18:12:42.009209	lat	lng	0.009765625	0.009765625	1.0	2.8702290076335877	-0.061068702290076333	0.916030534351145	144.6	120.6	-52.199999999999996
2017-08-17 18:12:42.026209	lat	lng	0.01416015625	0.015380859375	0.998046875	2.427480916030534	-0.015267175572519083	0.7480916030534351	144.6	120.6	-52.199999999999996
2017-08-17 18:12:42.042948	lat	lng	0.009521484375	0.012451171875	0.998046875	2.4732824427480917	3.8931297709923665	0.6106870229007634	144.6	120.6	-52.199999999999996
2017-08-17 18:12:42.063003	lat	lng	0.006591796875	0.018310546875	0.999755859375	2.564885496183206	-0.015267175572519083	0.6870229007633588	144.6	120.6	-52.199999999999996
2017-08-17 18:12:42.080214	lat	lng	0.010986328125	0.01416015625	1.00244140625	2.732824427480916	0.07633587786259542	0.5343511450381679	144.6	120.6	-52.199999999999996
2017-08-17 18:12:42.102179	lat	lng	0.0087890625	0.012939453125	1.001953125	2.6564885496183206	-0.15267175572519084	0.5190839694656488	144.6	120.6	-52.199999999999996
2017-08-17 18:12:42.128140	lat	lng	0.010498046875	0.01123046875	0.994873046875	2.4427480916030535	0.13740458015267176	0.8549618320610687	144.6	120.6	-52.199999999999996
2017-08-17 18:12:42.149422	lat	lng	0.0068359375	0.014892578125	1.005615234375	2.6564885496183206	0.061068702290076333	0.8396946564885496	144.6	120.6	-52.199999999999996
2017-08-17 18:12:42.166241	lat	lng	0.01318359375	0.01611328125	1.000244140625	2.5801526717557253	-0.030534351145038167	0.7633587786259542	144.6	120.6	-52.199999999999996
2017-08-17 18:12:42.187563	lat	lng	0.01123046875	0.013916015625	1.001708984375	2.4580152671755724	-0.10687022900763359	0.7480916030534351	144.6	120.6	-52.199999999999996
2017-08-17 18:12:42.205698	lat	lng	0.008056640625	0.016357421875	1.0068359375	2.50381679389313	-0.13740458015267176	0.8854961832061069	144.6	120.6	-52.199999999999996
2017-08-17 18:12:42.222706	lat	lng	0.01025390625	0.01611328125	1.006103515625	2.7786259541984735	-0.07633587786259542	0.7022900763358778	144.6	120.6	-52.199999999999996
2017-08-17 18:12:42.240348	lat	lng	0.00732421875	0.015380859375	1.00537109375	2.427480916030534	0.12213740458015267	0.7022900763358778	144.6	120.6	-52.199999999999996
2017-08-17 18:12:42.257873	lat	lng	0.0078125	0.0166015625	1.00341796875	2.8244274809160306	-0.04580152671755725	0.6106870229007634	144.6	120.6	-52.199999999999996
2017-08-17 18:12:42.276638	lat	lng	0.011474609375	0.01171875	0.9951171875	2.6564885496183206	-3.8931297709923665	0.7633587786259542	144.6	120.6	-52.199999999999996
2017-08-17 18:12:42.302695	lat	lng	0.00830078125	0.01220703125	1.00634765625	2.3053435114503817	0.030534351145038167	0.48854961832061067	144.6	120.6	-52.199999999999996
2017-08-17 18:12:42.329986	lat	lng	0.0078125	0.008544921875	1.026123046875	2.519083969465649	-0.21374045801526717	0.6870229007633588	144.6	120.6	-52.199999999999996
2017-08-17 18:12:42.352170	lat	lng	0.01025390625	0.013427734375	1.000732421875	2.7022900763358777	-3.9083969465648853	0.5801526717557252	144.6	120.6	-52.199999999999996
2017-08-17 18:12:42.376368	lat	lng	0.01318359375	0.0107421875	0.999267578125	2.595419847328244	-0.0916030534351145	0.7786259541984732	144.6	120.6	-52.199999999999996
2017-08-17 18:12:42.398649	lat	lng	0.010986328125	0.015625	1.00390625	2.381679389312977	0.0916030534351145	0.6412213740458015	144.6	120.6	-52.199999999999996
2017-08-17 18:12:42.422140	lat	lng	0.0087890625	0.013671875	0.970703125	2.595419847328244	-0.04580152671755725	0.7633587786259542	144.6	120.6	-52.199999999999996
2017-08-17 18:12:42.444460	lat	lng	0.006591796875	0.017822265625	1.011962890625	2.7022900763358777	-0.061068702290076333	0.9923664122137404	144.6	120.6	-52.199999999999996
2017-08-17 18:12:42.467154	lat	lng	0.010986328125	0.014892578125	1.0009765625	2.732824427480916	3.8931297709923665	0.7175572519083969	144.6	120.6	-52.199999999999996
2017-08-17 18:12:42.485520	lat	lng	0.0087890625	0.01318359375	0.999267578125	2.6259541984732824	-0.22900763358778625	0.7938931297709924	144.6	120.6	-52.199999999999996
2017-08-17 18:12:42.504143	lat	lng	0.012451171875	0.015869140625	1.002197265625	2.6412213740458017	-0.183206106870229	0.732824427480916	144.6	120.6	-52.199999999999996
2017-08-17 18:12:42.523065	lat	lng	0.0126953125	0.017578125	1.004638671875	2.595419847328244	-0.1984732824427481	0.549618320610687	144.6	120.6	-52.199999999999996
2017-08-17 18:12:42.541943	lat	lng	0.013671875	0.0126953125	0.99267578125	2.8244274809160306	-0.22900763358778625	0.6106870229007634	144.6	120.6	-52.199999999999996
2017-08-17 18:12:42.561497	lat	lng	0.0078125	0.01611328125	1.003173828125	2.381679389312977	0.015267175572519083	0.9312977099236641	144.6	120.6	-52.199999999999996
2017-08-17 18:12:42.584842	lat	lng	0.00830078125	0.014892578125	0.9951171875	2.7022900763358777	-0.0916030534351145	0.6870229007633588	144.6	120.6	-52.199999999999996
2017-08-17 18:12:42.605871	lat	lng	0.0107421875	0.012939453125	1.004150390625	2.4427480916030535	0.0	0.7938931297709924	144.6	120.6	-52.199999999999996
2017-08-17 18:12:42.626246	lat	lng	0.010498046875	0.01416015625	1.002197265625	2.717557251908397	-0.0916030534351145	0.8091603053435115	144.6	120.6	-52.199999999999996
2017-08-17 18:12:42.643030	lat	lng	0.009033203125	0.012939453125	1.001220703125	2.6106870229007635	-0.13740458015267176	0.5954198473282443	144.6	120.6	-52.199999999999996
2017-08-17 18:12:42.659690	lat	lng	0.010986328125	0.017333984375	1.002685546875	2.717557251908397	-0.16793893129770993	0.5190839694656488	144.6	120.6	-52.199999999999996
2017-08-17 18:12:42.677122	lat	lng	0.007080078125	0.0166015625	0.998046875	2.6106870229007635	-0.2900763358778626	0.7480916030534351	144.6	120.6	-52.199999999999996
2017-08-17 18:12:42.694153	lat	lng	0.010009765625	0.017578125	1.003662109375	2.7938931297709924	-0.15267175572519084	0.8549618320610687	144.6	120.6	-52.199999999999996
2017-08-17 18:12:42.710667	lat	lng	0.01171875	0.01220703125	1.00439453125	2.6259541984732824	-0.32061068702290074	0.7175572519083969	144.6	120.6	-52.199999999999996
2017-08-17 18:12:42.727399	lat	lng	0.01123046875	0.01611328125	1.002685546875	2.6412213740458017	-0.13740458015267176	0.6717557251908397	144.6	120.6	-52.199999999999996
2017-08-17 18:12:42.744014	lat	lng	0.00927734375	0.012939453125	1.001220703125	2.427480916030534	-3.877862595419847	0.8244274809160306	144.6	120.6	-52.199999999999996
2017-08-17 18:12:42.760815	lat	lng	0.011474609375	0.02001953125	0.995361328125	2.5343511450381677	-0.13740458015267176	0.7175572519083969	144.6	120.6	-52.199999999999996
2017-08-17 18:12:42.778046	lat	lng	0.009521484375	0.016357421875	0.998291015625	2.6259541984732824	-0.12213740458015267	0.7480916030534351	144.6	120.6	-52.199999999999996
2017-08-17 18:12:42.794692	lat	lng	0.00732421875	0.013427734375	0.99755859375	2.6106870229007635	-0.0916030534351145	0.6564885496183206	144.6	120.6	-52.199999999999996
2017-08-17 18:12:42.812030	lat	lng	0.011474609375	0.01220703125	1.0048828125	2.6717557251908395	0.16793893129770993	0.6259541984732825	144.6	120.6	-52.199999999999996
2017-08-17 18:12:42.828537	lat	lng	0.0107421875	0.01513671875	1.004150390625	2.6259541984732824	-0.12213740458015267	0.916030534351145	144.6	120.6	-52.199999999999996
2017-08-17 18:12:42.847803	lat	lng	0.010009765625	0.01611328125	1.00244140625	2.519083969465649	-0.1984732824427481	0.6412213740458015	144.6	120.6	-52.199999999999996
2017-08-17 18:12:42.868825	lat	lng	0.0107421875	0.012939453125	1.001220703125	2.885496183206107	-0.13740458015267176	0.7938931297709924	144.6	120.6	-52.199999999999996
2017-08-17 18:12:42.885726	lat	lng	0.006591796875	0.014404296875	0.99755859375	2.687022900763359	0.10687022900763359	0.549618320610687	144.6	120.6	-52.199999999999996
2017-08-17 18:12:42.903392	lat	lng	0.0078125	0.01708984375	0.99755859375	2.4885496183206106	0.015267175572519083	0.8091603053435115	144.6	120.6	-52.199999999999996
2017-08-17 18:12:42.919912	lat	lng	0.008056640625	0.015625	1.00146484375	2.7022900763358777	-0.030534351145038167	0.9312977099236641	144.6	120.6	-52.199999999999996
2017-08-17 18:12:42.937741	lat	lng	0.01171875	0.01806640625	1.00439453125	2.50381679389313	-0.24427480916030533	0.8091603053435115	144.6	120.6	-52.199999999999996
2017-08-17 18:12:42.954304	lat	lng	0.010009765625	0.016357421875	1.0009765625	2.4885496183206106	0.10687022900763359	0.7480916030534351	144.6	120.6	-52.199999999999996
2017-08-17 18:12:42.972041	lat	lng	0.00732421875	0.013427734375	0.9990234375	2.946564885496183	-0.10687022900763359	0.8396946564885496	144.6	120.6	-52.199999999999996
2017-08-17 18:12:42.988481	lat	lng	0.0107421875	0.01611328125	1.00341796875	2.4427480916030535	-0.061068702290076333	0.5190839694656488	144.6	120.6	-52.199999999999996
2017-08-17 18:12:43.006015	lat	lng	0.01025390625	0.015869140625	1.00634765625	2.595419847328244	-0.015267175572519083	0.6259541984732825	144.6	120.6	-52.199999999999996
2017-08-17 18:12:43.023089	lat	lng	0.008544921875	0.0146484375	1.00146484375	2.6564885496183206	-0.21374045801526717	0.6259541984732825	144.6	120.6	-52.199999999999996
2017-08-17 18:12:43.040710	lat	lng	0.010498046875	0.0166015625	1.0009765625	2.549618320610687	-3.9083969465648853	0.6412213740458015	144.6	120.6	-52.199999999999996
2017-08-17 18:12:43.057403	lat	lng	0.010009765625	0.015625	1.000732421875	2.6564885496183206	0.04580152671755725	0.8091603053435115	144.6	120.6	-52.199999999999996
2017-08-17 18:12:43.076371	lat	lng	0.01171875	0.0126953125	0.997314453125	2.4580152671755724	-0.2748091603053435	0.549618320610687	144.6	120.6	-52.199999999999996
2017-08-17 18:12:43.103642	lat	lng	0.0068359375	0.010986328125	0.96923828125	2.4885496183206106	-0.10687022900763359	0.6564885496183206	144.6	120.6	-52.199999999999996
2017-08-17 18:12:43.125168	lat	lng	0.0087890625	0.01513671875	1.004638671875	2.6564885496183206	-0.16793893129770993	0.8396946564885496	144.6	120.6	-52.199999999999996
2017-08-17 18:12:43.143119	lat	lng	0.010009765625	0.014892578125	0.997802734375	2.4885496183206106	-0.15267175572519084	0.5801526717557252	144.6	120.6	-52.199999999999996
2017-08-17 18:12:43.164630	lat	lng	0.010498046875	0.01513671875	0.993408203125	2.595419847328244	-0.183206106870229	0.5343511450381679	144.6	120.6	-52.199999999999996
2017-08-17 18:12:43.183976	lat	lng	0.01171875	0.013916015625	1.0	2.33587786259542	-0.061068702290076333	1.0076335877862594	144.6	120.6	-52.199999999999996
2017-08-17 18:12:43.207713	lat	lng	0.00830078125	0.010009765625	0.99658203125	2.885496183206107	3.8931297709923665	0.7633587786259542	144.6	120.6	-52.199999999999996
2017-08-17 18:12:43.236720	lat	lng	0.010498046875	0.0146484375	1.003662109375	2.5801526717557253	-3.877862595419847	0.6412213740458015	144.6	120.6	-52.199999999999996
2017-08-17 18:12:43.259365	lat	lng	0.0078125	0.0107421875	0.992431640625	2.427480916030534	0.10687022900763359	0.7480916030534351	144.6	120.6	-52.199999999999996
2017-08-17 18:12:43.286846	lat	lng	0.007080078125	0.018310546875	0.990478515625	2.351145038167939	0.2748091603053435	0.8244274809160306	144.6	120.6	-52.199999999999996
2017-08-17 18:12:43.307619	lat	lng	0.010986328125	0.01416015625	0.99609375	2.6412213740458017	-0.16793893129770993	0.7786259541984732	144.6	120.6	-52.199999999999996
2017-08-17 18:12:43.325651	lat	lng	0.00830078125	0.013916015625	1.00048828125	2.564885496183206	0.10687022900763359	0.7022900763358778	144.6	120.6	-52.199999999999996
2017-08-17 18:12:43.344765	lat	lng	0.009033203125	0.01416015625	1.00341796875	2.7022900763358777	-0.12213740458015267	0.6717557251908397	144.6	120.6	-52.199999999999996
2017-08-17 18:12:43.363043	lat	lng	0.010986328125	0.016845703125	1.002685546875	2.6259541984732824	-0.183206106870229	0.6564885496183206	144.6	120.6	-52.199999999999996
2017-08-17 18:12:43.381638	lat	lng	0.007080078125	0.015380859375	1.000732421875	2.564885496183206	-0.12213740458015267	0.7175572519083969	144.6	120.6	-52.199999999999996
2017-08-17 18:12:43.399970	lat	lng	0.013427734375	0.015869140625	1.006591796875	2.8244274809160306	-0.061068702290076333	0.6564885496183206	144.6	120.6	-52.199999999999996
2017-08-17 18:12:43.418481	lat	lng	0.010009765625	0.01611328125	1.00048828125	2.717557251908397	0.1984732824427481	0.7175572519083969	144.6	120.6	-52.199999999999996
2017-08-17 18:12:43.440917	lat	lng	0.010986328125	0.01611328125	0.998046875	2.50381679389313	-0.015267175572519083	0.5801526717557252	144.6	120.6	-52.199999999999996
2017-08-17 18:12:43.458071	lat	lng	0.0087890625	0.01611328125	1.00146484375	2.519083969465649	-0.183206106870229	0.5954198473282443	144.6	120.6	-52.199999999999996
2017-08-17 18:12:43.475331	lat	lng	0.011474609375	0.013916015625	0.9990234375	2.564885496183206	-0.030534351145038167	0.732824427480916	144.6	120.6	-52.199999999999996
2017-08-17 18:12:43.492560	lat	lng	0.01318359375	0.01708984375	1.00732421875	2.564885496183206	-0.183206106870229	0.8244274809160306	144.6	120.6	-52.199999999999996
2017-08-17 18:12:43.516245	lat	lng	0.010498046875	0.013671875	1.000732421875	2.6564885496183206	-0.13740458015267176	0.8091603053435115	144.6	120.6	-52.199999999999996
2017-08-17 18:12:43.532730	lat	lng	0.01416015625	0.01220703125	1.005126953125	2.6259541984732824	0.0916030534351145	0.7022900763358778	144.6	120.6	-52.199999999999996
2017-08-17 18:12:43.549697	lat	lng	0.013427734375	0.015380859375	1.001708984375	2.564885496183206	-0.22900763358778625	0.7938931297709924	144.6	120.6	-52.199999999999996
2017-08-17 18:12:43.569731	lat	lng	0.005126953125	0.017578125	0.998779296875	2.717557251908397	-0.22900763358778625	0.5648854961832062	144.6	120.6	-52.199999999999996
2017-08-17 18:12:43.591424	lat	lng	0.00830078125	0.017822265625	1.005859375	2.595419847328244	-0.22900763358778625	0.7175572519083969	144.6	120.6	-52.199999999999996
2017-08-17 18:12:43.610670	lat	lng	0.009521484375	0.015869140625	0.997314453125	2.351145038167939	0.015267175572519083	0.7633587786259542	144.6	120.6	-52.199999999999996
2017-08-17 18:12:43.629460	lat	lng	0.011962890625	0.013916015625	0.999267578125	2.885496183206107	0.04580152671755725	0.7938931297709924	144.6	120.6	-52.199999999999996
2017-08-17 18:12:43.651412	lat	lng	0.010986328125	0.0126953125	0.99609375	2.4580152671755724	-0.2748091603053435	0.7938931297709924	144.6	120.6	-52.199999999999996
2017-08-17 18:12:43.669788	lat	lng	0.0087890625	0.014892578125	0.99951171875	2.9160305343511452	0.015267175572519083	0.6106870229007634	144.6	120.6	-52.199999999999996
2017-08-17 18:12:43.687359	lat	lng	0.01220703125	0.012939453125	0.99560546875	2.427480916030534	-0.16793893129770993	0.6717557251908397	144.6	120.6	-52.199999999999996
2017-08-17 18:12:43.704505	lat	lng	0.009521484375	0.015869140625	0.9990234375	2.4885496183206106	-0.04580152671755725	0.6259541984732825	144.6	120.6	-52.199999999999996
2017-08-17 18:12:43.726757	lat	lng	0.009765625	0.017578125	1.00244140625	2.5343511450381677	0.030534351145038167	0.7786259541984732	144.6	120.6	-52.199999999999996
2017-08-17 18:12:43.744141	lat	lng	0.01025390625	0.018798828125	1.001953125	2.50381679389313	-0.12213740458015267	0.6564885496183206	144.6	120.6	-52.199999999999996
2017-08-17 18:12:43.763234	lat	lng	0.01416015625	0.013427734375	1.0029296875	2.687022900763359	-3.9083969465648853	0.7480916030534351	144.6	120.6	-52.199999999999996
2017-08-17 18:12:43.781026	lat	lng	0.01123046875	0.016357421875	1.0087890625	2.6717557251908395	0.04580152671755725	0.9465648854961832	144.6	120.6	-52.199999999999996
2017-08-17 18:12:43.800675	lat	lng	0.012939453125	0.016357421875	1.0009765625	2.6259541984732824	0.030534351145038167	0.7786259541984732	144.6	120.6	-52.199999999999996
2017-08-17 18:12:43.818917	lat	lng	0.0126953125	0.01708984375	1.00146484375	2.6259541984732824	-0.10687022900763359	0.7175572519083969	144.6	120.6	-52.199999999999996
2017-08-17 18:12:43.837221	lat	lng	0.00927734375	0.013671875	1.001220703125	2.7938931297709924	-0.04580152671755725	0.6106870229007634	144.6	120.6	-52.199999999999996
2017-08-17 18:12:43.855399	lat	lng	0.015625	0.01220703125	1.007080078125	2.595419847328244	0.0916030534351145	0.732824427480916	144.6	120.6	-52.199999999999996
2017-08-17 18:12:43.875964	lat	lng	0.012451171875	0.01806640625	0.999267578125	2.8702290076335877	-0.10687022900763359	0.6259541984732825	144.6	120.6	-52.199999999999996
2017-08-17 18:12:43.894322	lat	lng	0.0087890625	0.012939453125	1.003173828125	2.7786259541984735	0.015267175572519083	0.8396946564885496	144.6	120.6	-52.199999999999996
2017-08-17 18:12:43.911369	lat	lng	0.010009765625	0.011962890625	1.00146484375	2.6259541984732824	-0.2748091603053435	0.9312977099236641	144.6	120.6	-52.199999999999996
2017-08-17 18:12:43.928060	lat	lng	0.0078125	0.01171875	1.001708984375	2.7938931297709924	0.015267175572519083	0.6564885496183206	144.6	120.6	-52.199999999999996
2017-08-17 18:12:43.945951	lat	lng	0.012451171875	0.013671875	1.002685546875	2.763358778625954	-0.15267175572519084	0.7633587786259542	144.6	120.6	-52.199999999999996
2017-08-17 18:12:43.963151	lat	lng	0.00732421875	0.01708984375	1.004638671875	2.717557251908397	-0.2748091603053435	0.8244274809160306	144.6	120.6	-52.199999999999996
2017-08-17 18:12:43.981481	lat	lng	0.009765625	0.014404296875	0.994873046875	2.5343511450381677	0.10687022900763359	0.6870229007633588	144.6	120.6	-52.199999999999996
2017-08-17 18:12:44.006205	lat	lng	0.009765625	0.015625	0.997802734375	2.7786259541984735	-0.16793893129770993	0.6259541984732825	144.6	120.6	-52.199999999999996
2017-08-17 18:12:44.028659	lat	lng	0.0048828125	0.015869140625	1.00048828125	2.4580152671755724	-0.061068702290076333	0.7786259541984732	144.6	120.6	-52.199999999999996
2017-08-17 18:12:44.049679	lat	lng	0.0087890625	0.015380859375	0.999267578125	2.6259541984732824	0.04580152671755725	0.8549618320610687	144.6	120.6	-52.199999999999996
2017-08-17 18:12:44.073937	lat	lng	0.00927734375	0.015625	0.96875	2.687022900763359	-0.2595419847328244	0.6259541984732825	144.6	120.6	-52.199999999999996
2017-08-17 18:12:44.094462	lat	lng	0.0107421875	0.01806640625	0.998046875	2.50381679389313	0.04580152671755725	0.7938931297709924	144.6	120.6	-52.199999999999996
2017-08-17 18:12:44.120053	lat	lng	0.01025390625	0.01611328125	0.999755859375	2.427480916030534	-0.16793893129770993	0.7938931297709924	144.6	120.6	-52.199999999999996
2017-08-17 18:12:44.141520	lat	lng	0.012451171875	0.015869140625	0.994873046875	2.7938931297709924	-0.10687022900763359	0.7175572519083969	144.6	120.6	-52.199999999999996
2017-08-17 18:12:44.157922	lat	lng	0.00927734375	0.017822265625	1.000244140625	2.7480916030534353	-0.4122137404580153	0.7480916030534351	144.6	120.6	-52.199999999999996
2017-08-17 18:12:44.174475	lat	lng	0.0107421875	0.0146484375	1.001708984375	2.564885496183206	-0.061068702290076333	0.6717557251908397	144.6	120.6	-52.199999999999996
2017-08-17 18:12:44.191569	lat	lng	0.0107421875	0.01318359375	1.0078125	2.6106870229007635	-0.32061068702290074	0.6717557251908397	144.6	120.6	-52.199999999999996
2017-08-17 18:12:44.208028	lat	lng	0.0078125	0.0146484375	1.00634765625	2.7022900763358777	-0.21374045801526717	0.8396946564885496	144.6	120.6	-52.199999999999996
2017-08-17 18:12:44.224575	lat	lng	0.0126953125	0.017578125	1.000244140625	2.6564885496183206	0.015267175572519083	0.7938931297709924	144.6	120.6	-52.199999999999996
2017-08-17 18:12:44.240918	lat	lng	0.01025390625	0.01708984375	0.996826171875	2.4732824427480917	-0.16793893129770993	0.7633587786259542	144.6	120.6	-52.199999999999996
2017-08-17 18:12:44.257269	lat	lng	0.009765625	0.016357421875	1.0263671875	2.4427480916030535	0.015267175572519083	0.9007633587786259	144.6	120.6	-52.199999999999996
2017-08-17 18:12:44.273736	lat	lng	0.013427734375	0.0146484375	1.0029296875	2.564885496183206	-3.8931297709923665	0.6259541984732825	144.6	120.6	-52.199999999999996
2017-08-17 18:12:44.290402	lat	lng	0.007080078125	0.01416015625	1.0068359375	2.4885496183206106	0.030534351145038167	0.5038167938931297	144.6	120.6	-52.199999999999996
2017-08-17 18:12:44.306776	lat	lng	0.00927734375	0.01416015625	0.997802734375	2.6412213740458017	-0.12213740458015267	0.7786259541984732	144.6	120.6	-52.199999999999996
2017-08-17 18:12:44.323226	lat	lng	0.011962890625	0.017578125	0.994384765625	2.717557251908397	-0.2900763358778626	0.8091603053435115	144.6	120.6	-52.199999999999996
2017-08-17 18:12:44.339664	lat	lng	0.009521484375	0.01416015625	0.997314453125	2.6564885496183206	-0.07633587786259542	0.8396946564885496	144.6	120.6	-52.199999999999996
2017-08-17 18:12:44.356296	lat	lng	0.0166015625	0.01708984375	1.000732421875	2.687022900763359	0.0	0.7633587786259542	144.6	120.6	-52.199999999999996
2017-08-17 18:12:44.372731	lat	lng	0.0087890625	0.011474609375	1.001953125	2.427480916030534	-0.13740458015267176	0.6259541984732825	144.6	120.6	-52.199999999999996
2017-08-17 18:12:44.389133	lat	lng	0.013916015625	0.014892578125	1.00634765625	2.5801526717557253	-0.21374045801526717	0.7633587786259542	144.6	120.6	-52.199999999999996
2017-08-17 18:12:44.405680	lat	lng	0.013427734375	0.01611328125	1.007568359375	2.549618320610687	-0.21374045801526717	0.8854961832061069	144.6	120.6	-52.199999999999996
2017-08-17 18:12:44.422219	lat	lng	0.014892578125	0.01708984375	1.008056640625	2.732824427480916	-0.33587786259541985	0.8702290076335878	144.6	120.6	-52.199999999999996
2017-08-17 18:12:44.438610	lat	lng	0.010498046875	0.014892578125	1.005859375	2.564885496183206	-0.0916030534351145	0.7938931297709924	144.6	120.6	-52.199999999999996
2017-08-17 18:12:44.455183	lat	lng	0.008056640625	0.015869140625	1.000732421875	2.519083969465649	-0.061068702290076333	0.8702290076335878	144.6	120.6	-52.199999999999996
2017-08-17 18:12:44.471541	lat	lng	0.009033203125	0.0146484375	0.999267578125	2.4885496183206106	-0.04580152671755725	0.7480916030534351	144.6	120.6	-52.199999999999996
2017-08-17 18:12:44.487922	lat	lng	0.0087890625	0.01611328125	1.001953125	2.7938931297709924	-0.13740458015267176	0.8091603053435115	144.6	120.6	-52.199999999999996
2017-08-17 18:12:44.504375	lat	lng	0.010009765625	0.01513671875	1.002685546875	2.7786259541984735	0.04580152671755725	0.7175572519083969	144.6	120.6	-52.199999999999996
2017-08-17 18:12:44.520891	lat	lng	0.00732421875	0.01220703125	0.9970703125	2.687022900763359	-0.10687022900763359	0.7786259541984732	144.6	120.6	-52.199999999999996
2017-08-17 18:12:44.537246	lat	lng	0.0107421875	0.012939453125	1.00732421875	2.5343511450381677	-0.061068702290076333	0.8091603053435115	144.6	120.6	-52.199999999999996
2017-08-17 18:12:44.553689	lat	lng	0.009521484375	0.01611328125	1.00439453125	2.595419847328244	-0.0916030534351145	0.6106870229007634	144.6	120.6	-52.199999999999996
2017-08-17 18:12:44.570149	lat	lng	0.010498046875	0.014892578125	1.00244140625	2.519083969465649	0.04580152671755725	0.5648854961832062	144.6	120.6	-52.199999999999996
2017-08-17 18:12:44.586746	lat	lng	0.009765625	0.013671875	0.9970703125	2.519083969465649	-0.04580152671755725	0.6564885496183206	144.6	120.6	-52.199999999999996
2017-08-17 18:12:44.603217	lat	lng	0.0068359375	0.01513671875	1.007080078125	2.351145038167939	-0.15267175572519084	0.5954198473282443	144.6	120.6	-52.199999999999996
2017-08-17 18:12:44.619595	lat	lng	0.0068359375	0.017578125	1.013671875	2.213740458015267	-0.061068702290076333	0.6564885496183206	144.6	120.6	-52.199999999999996
2017-08-17 18:12:44.636223	lat	lng	0.01123046875	0.015380859375	1.010498046875	2.366412213740458	-0.0916030534351145	0.8854961832061069	144.6	120.6	-52.199999999999996
2017-08-17 18:12:44.652760	lat	lng	0.00830078125	0.01318359375	1.000732421875	2.6564885496183206	0.10687022900763359	0.6870229007633588	144.6	120.6	-52.199999999999996
2017-08-17 18:12:44.669234	lat	lng	0.00830078125	0.0185546875	0.998291015625	2.732824427480916	0.1984732824427481	0.7022900763358778	144.6	120.6	-52.199999999999996
2017-08-17 18:12:44.685839	lat	lng	0.01171875	0.010498046875	1.00390625	2.763358778625954	-0.030534351145038167	0.8549618320610687	144.6	120.6	-52.199999999999996
2017-08-17 18:12:44.702185	lat	lng	0.006103515625	0.01220703125	1.00634765625	2.6412213740458017	0.015267175572519083	0.8244274809160306	144.6	120.6	-52.199999999999996
2017-08-17 18:12:44.718893	lat	lng	0.008544921875	0.0185546875	1.001220703125	2.6564885496183206	-0.061068702290076333	0.6717557251908397	144.6	120.6	-52.199999999999996
2017-08-17 18:12:44.736739	lat	lng	0.009033203125	0.015380859375	1.00341796875	2.7022900763358777	0.04580152671755725	1.0076335877862594	144.6	120.6	-52.199999999999996
2017-08-17 18:12:44.755174	lat	lng	0.00927734375	0.0166015625	1.004638671875	2.6106870229007635	0.12213740458015267	0.5954198473282443	144.6	120.6	-52.199999999999996
2017-08-17 18:12:44.773513	lat	lng	0.0068359375	0.014892578125	1.007568359375	2.595419847328244	0.07633587786259542	0.6564885496183206	144.6	120.6	-52.199999999999996
2017-08-17 18:12:44.792601	lat	lng	0.0078125	0.013427734375	1.0078125	2.717557251908397	-0.0916030534351145	0.5648854961832062	144.6	120.6	-52.199999999999996
2017-08-17 18:12:44.816174	lat	lng	0.009033203125	0.01513671875	0.99658203125	2.7938931297709924	0.07633587786259542	0.6870229007633588	144.6	120.6	-52.199999999999996
2017-08-17 18:12:44.843021	lat	lng	0.0107421875	0.012451171875	1.00439453125	2.687022900763359	-0.2748091603053435	0.7786259541984732	144.6	120.6	-52.199999999999996
2017-08-17 18:12:44.868126	lat	lng	0.0126953125	0.01416015625	1.006591796875	2.732824427480916	-0.07633587786259542	0.7175572519083969	144.6	120.6	-52.199999999999996
2017-08-17 18:12:44.889809	lat	lng	0.009521484375	0.013671875	0.9716796875	2.564885496183206	0.015267175572519083	0.8549618320610687	144.6	120.6	-52.199999999999996
2017-08-17 18:12:44.911201	lat	lng	0.010498046875	0.012939453125	1.006591796875	2.7480916030534353	0.22900763358778625	0.8244274809160306	144.6	120.6	-52.199999999999996
2017-08-17 18:12:44.936513	lat	lng	0.010986328125	0.012451171875	0.994384765625	2.564885496183206	0.21374045801526717	0.7175572519083969	144.6	120.6	-52.199999999999996
2017-08-17 18:12:44.964579	lat	lng	0.01025390625	0.01953125	1.004150390625	2.7480916030534353	-0.07633587786259542	0.6259541984732825	144.6	120.6	-52.199999999999996
2017-08-17 18:12:44.987264	lat	lng	0.01416015625	0.018310546875	1.003662109375	2.717557251908397	0.04580152671755725	0.9770992366412213	144.6	120.6	-52.199999999999996
2017-08-17 18:12:45.010849	lat	lng	0.00927734375	0.01513671875	0.998046875	2.6106870229007635	-0.10687022900763359	0.6259541984732825	144.6	120.6	-52.199999999999996
2017-08-17 18:12:45.037764	lat	lng	0.0078125	0.013671875	0.99462890625	2.50381679389313	-0.015267175572519083	0.7022900763358778	144.6	120.6	-52.199999999999996
2017-08-17 18:12:45.061170	lat	lng	0.007568359375	0.01416015625	1.0009765625	2.50381679389313	0.0	0.8396946564885496	144.6	120.6	-52.199999999999996
2017-08-17 18:12:45.082478	lat	lng	0.010498046875	0.011962890625	1.006591796875	2.6717557251908395	-0.04580152671755725	0.7633587786259542	144.6	120.6	-52.199999999999996
2017-08-17 18:12:45.105457	lat	lng	0.009033203125	0.01513671875	1.00341796875	2.6412213740458017	-0.24427480916030533	0.5954198473282443	144.6	120.6	-52.199999999999996
2017-08-17 18:12:45.128408	lat	lng	0.010498046875	0.011962890625	0.996337890625	2.7022900763358777	-0.2748091603053435	0.5648854961832062	144.6	120.6	-52.199999999999996
2017-08-17 18:12:45.157100	lat	lng	0.009521484375	0.016845703125	1.00390625	2.7022900763358777	-0.16793893129770993	0.5648854961832062	144.6	120.6	-52.199999999999996
2017-08-17 18:12:45.191795	lat	lng	0.008544921875	0.01171875	0.998779296875	2.6412213740458017	-0.0916030534351145	0.7022900763358778	144.6	120.6	-52.199999999999996
2017-08-17 18:12:45.222024	lat	lng	0.009521484375	0.01513671875	1.000732421875	2.5343511450381677	-0.061068702290076333	0.8091603053435115	144.6	120.6	-52.199999999999996
2017-08-17 18:12:45.242796	lat	lng	0.008544921875	0.01513671875	1.00048828125	2.732824427480916	-0.030534351145038167	0.6564885496183206	144.6	120.6	-52.199999999999996
2017-08-17 18:12:45.264007	lat	lng	0.011962890625	0.013671875	0.99853515625	2.763358778625954	-0.10687022900763359	0.7175572519083969	144.6	120.6	-52.199999999999996
2017-08-17 18:12:45.288846	lat	lng	0.0078125	0.01416015625	0.9970703125	2.6717557251908395	0.3053435114503817	0.8702290076335878	144.6	120.6	-52.199999999999996
2017-08-17 18:12:45.312061	lat	lng	0.0107421875	0.0166015625	1.00390625	2.50381679389313	3.8931297709923665	0.6717557251908397	144.6	120.6	-52.199999999999996
2017-08-17 18:12:45.335563	lat	lng	0.009765625	0.015625	0.997802734375	2.8702290076335877	-0.04580152671755725	0.732824427480916	144.6	120.6	-52.199999999999996
2017-08-17 18:12:45.357640	lat	lng	0.01318359375	0.0146484375	1.004150390625	2.4122137404580153	-0.24427480916030533	0.5190839694656488	144.6	120.6	-52.199999999999996
2017-08-17 18:12:45.384375	lat	lng	0.010009765625	0.0126953125	1.001708984375	2.427480916030534	-0.04580152671755725	0.6564885496183206	144.6	120.6	-52.199999999999996
2017-08-17 18:12:45.407162	lat	lng	0.00830078125	0.014404296875	0.96875	2.7786259541984735	0.0	0.5954198473282443	144.6	120.6	-52.199999999999996
2017-08-17 18:12:45.432402	lat	lng	0.007080078125	0.014892578125	1.001220703125	2.732824427480916	3.8625954198473282	0.6717557251908397	144.6	120.6	-52.199999999999996
2017-08-17 18:12:45.455673	lat	lng	0.01025390625	0.015869140625	1.00146484375	2.4580152671755724	-0.44274809160305345	0.7175572519083969	144.6	120.6	-52.199999999999996
2017-08-17 18:12:45.478256	lat	lng	0.01025390625	0.0146484375	1.0009765625	2.6259541984732824	-0.16793893129770993	0.916030534351145	144.6	120.6	-52.199999999999996
2017-08-17 18:12:45.502042	lat	lng	0.01025390625	0.015380859375	1.001953125	2.6259541984732824	0.061068702290076333	0.7786259541984732	144.6	120.6	-52.199999999999996
2017-08-17 18:12:45.524106	lat	lng	0.01171875	0.013916015625	0.9951171875	2.7022900763358777	-0.15267175572519084	0.9465648854961832	144.6	120.6	-52.199999999999996
2017-08-17 18:12:45.548641	lat	lng	0.010009765625	0.014892578125	0.99853515625	2.6259541984732824	-0.0916030534351145	0.7022900763358778	144.6	120.6	-52.199999999999996
2017-08-17 18:12:45.570411	lat	lng	0.0048828125	0.0166015625	1.003662109375	2.564885496183206	-0.21374045801526717	0.6717557251908397	144.6	120.6	-52.199999999999996
2017-08-17 18:12:45.592042	lat	lng	0.008056640625	0.01416015625	0.99462890625	2.4885496183206106	0.0	0.6870229007633588	144.6	120.6	-52.199999999999996
2017-08-17 18:12:45.614426	lat	lng	0.0078125	0.013427734375	1.0	2.8244274809160306	-0.22900763358778625	0.8702290076335878	144.6	120.6	-52.199999999999996
2017-08-17 18:12:45.634692	lat	lng	0.008544921875	0.014404296875	0.997314453125	2.4427480916030535	0.21374045801526717	0.8702290076335878	144.6	120.6	-52.199999999999996
2017-08-17 18:12:45.655175	lat	lng	0.005615234375	0.013671875	1.0029296875	2.8702290076335877	-0.15267175572519084	0.732824427480916	144.6	120.6	-52.199999999999996
2017-08-17 18:12:45.676025	lat	lng	0.007080078125	0.020263671875	0.99365234375	2.5343511450381677	-0.13740458015267176	0.8854961832061069	144.6	120.6	-52.199999999999996
2017-08-17 18:12:45.696639	lat	lng	0.0078125	0.01708984375	1.006103515625	2.6717557251908395	-0.015267175572519083	0.6717557251908397	144.6	120.6	-52.199999999999996
2017-08-17 18:12:45.717031	lat	lng	0.0048828125	0.014892578125	0.99609375	2.717557251908397	-0.21374045801526717	0.7175572519083969	144.6	120.6	-52.199999999999996
2017-08-17 18:12:45.737506	lat	lng	0.010009765625	0.013427734375	1.0029296875	2.5801526717557253	-0.04580152671755725	0.7633587786259542	144.6	120.6	-52.199999999999996
2017-08-17 18:12:45.761358	lat	lng	0.009765625	0.01513671875	0.99951171875	2.5801526717557253	0.04580152671755725	0.8396946564885496	144.6	120.6	-52.199999999999996
2017-08-17 18:12:45.782093	lat	lng	0.009765625	0.0107421875	1.00390625	2.549618320610687	-0.030534351145038167	0.549618320610687	144.6	120.6	-52.199999999999996
2017-08-17 18:12:45.802686	lat	lng	0.00634765625	0.01171875	1.00390625	2.549618320610687	-0.2595419847328244	0.5038167938931297	144.6	120.6	-52.199999999999996
2017-08-17 18:12:45.823086	lat	lng	0.01220703125	0.01904296875	1.000732421875	2.732824427480916	-0.2900763358778626	0.5954198473282443	144.6	120.6	-52.199999999999996
2017-08-17 18:12:45.843490	lat	lng	0.01171875	0.013671875	0.99853515625	2.763358778625954	0.015267175572519083	0.7022900763358778	144.6	120.6	-52.199999999999996
2017-08-17 18:12:45.863917	lat	lng	0.011962890625	0.0146484375	1.00244140625	2.8702290076335877	-0.04580152671755725	0.8091603053435115	144.6	120.6	-52.199999999999996
2017-08-17 18:12:45.884222	lat	lng	0.0107421875	0.014892578125	0.99853515625	2.5801526717557253	0.061068702290076333	0.8702290076335878	144.6	120.6	-52.199999999999996
2017-08-17 18:12:45.904794	lat	lng	0.01123046875	0.011474609375	1.00244140625	2.687022900763359	-3.8931297709923665	0.6564885496183206	144.6	120.6	-52.199999999999996
2017-08-17 18:12:45.925221	lat	lng	0.007568359375	0.01513671875	1.005859375	2.763358778625954	0.10687022900763359	0.5648854961832062	144.6	120.6	-52.199999999999996
2017-08-17 18:12:45.945608	lat	lng	0.011962890625	0.014404296875	0.995849609375	2.5343511450381677	-0.0916030534351145	0.6106870229007634	144.6	120.6	-52.199999999999996
2017-08-17 18:12:45.965990	lat	lng	0.01123046875	0.015380859375	0.9970703125	2.6564885496183206	-0.15267175572519084	0.5343511450381679	144.6	120.6	-52.199999999999996
2017-08-17 18:12:45.986414	lat	lng	0.010009765625	0.012939453125	0.99609375	2.50381679389313	-3.9083969465648853	0.7938931297709924	144.6	120.6	-52.199999999999996
2017-08-17 18:12:46.006970	lat	lng	0.00830078125	0.015869140625	1.001220703125	2.687022900763359	-0.030534351145038167	0.7633587786259542	144.6	120.6	-52.199999999999996
2017-08-17 18:12:46.027550	lat	lng	0.01025390625	0.012451171875	1.003662109375	2.4580152671755724	-0.12213740458015267	0.9312977099236641	144.6	120.6	-52.199999999999996
2017-08-17 18:12:46.047946	lat	lng	0.007568359375	0.014404296875	0.996826171875	2.5801526717557253	-0.22900763358778625	0.6717557251908397	144.6	120.6	-52.199999999999996
2017-08-17 18:12:46.068387	lat	lng	0.01171875	0.015380859375	0.99560546875	2.6259541984732824	0.3053435114503817	0.7175572519083969	144.6	120.6	-52.199999999999996
2017-08-17 18:12:46.088785	lat	lng	0.01025390625	0.014892578125	1.003173828125	2.6717557251908395	-0.13740458015267176	0.6870229007633588	144.6	120.6	-52.199999999999996
2017-08-17 18:12:46.109523	lat	lng	0.00927734375	0.012939453125	1.00146484375	2.50381679389313	-3.8931297709923665	0.8396946564885496	144.6	120.6	-52.199999999999996
2017-08-17 18:12:46.130133	lat	lng	0.0087890625	0.01318359375	1.00634765625	2.4122137404580153	0.061068702290076333	0.7480916030534351	144.6	120.6	-52.199999999999996
2017-08-17 18:12:46.151305	lat	lng	0.009765625	0.01171875	1.028564453125	2.687022900763359	-0.12213740458015267	0.7938931297709924	144.6	120.6	-52.199999999999996
2017-08-17 18:12:46.172891	lat	lng	0.01171875	0.01171875	1.008056640625	2.763358778625954	-0.16793893129770993	0.7633587786259542	144.6	120.6	-52.199999999999996
2017-08-17 18:12:46.194431	lat	lng	0.0087890625	0.0166015625	0.998291015625	2.6412213740458017	0.061068702290076333	0.8702290076335878	144.6	120.6	-52.199999999999996
2017-08-17 18:12:46.217433	lat	lng	0.017333984375	0.012451171875	0.99365234375	2.6564885496183206	0.10687022900763359	0.5954198473282443	144.6	120.6	-52.199999999999996
2017-08-17 18:12:46.239966	lat	lng	0.009521484375	0.01318359375	1.00537109375	2.381679389312977	-0.21374045801526717	0.8396946564885496	144.6	120.6	-52.199999999999996
2017-08-17 18:12:46.262878	lat	lng	0.005859375	0.013671875	1.003173828125	2.564885496183206	0.0916030534351145	0.8702290076335878	144.6	120.6	-52.199999999999996
2017-08-17 18:12:46.287433	lat	lng	0.010009765625	0.01025390625	1.000732421875	2.6564885496183206	0.12213740458015267	0.732824427480916	144.6	120.6	-52.199999999999996
2017-08-17 18:12:46.310067	lat	lng	0.00927734375	0.0126953125	0.9990234375	2.4122137404580153	-0.015267175572519083	0.5954198473282443	144.6	120.6	-52.199999999999996
2017-08-17 18:12:46.335188	lat	lng	0.01123046875	0.016845703125	1.005859375	2.687022900763359	-0.16793893129770993	0.6717557251908397	144.6	120.6	-52.199999999999996
2017-08-17 18:12:46.357713	lat	lng	0.005126953125	0.009521484375	1.000244140625	2.549618320610687	-0.15267175572519084	0.8549618320610687	144.6	120.6	-52.199999999999996
2017-08-17 18:12:46.380283	lat	lng	0.006591796875	0.009521484375	1.0009765625	2.732824427480916	-0.061068702290076333	0.916030534351145	144.6	120.6	-52.199999999999996
2017-08-17 18:12:46.403299	lat	lng	0.010009765625	0.013916015625	0.99560546875	2.3969465648854964	-0.0916030534351145	0.6717557251908397	144.6	120.6	-52.199999999999996
2017-08-17 18:12:46.425802	lat	lng	0.012939453125	0.013671875	0.99755859375	2.6412213740458017	-0.07633587786259542	0.7480916030534351	144.6	120.6	-52.199999999999996
2017-08-17 18:12:46.451577	lat	lng	0.009765625	0.01416015625	0.996337890625	2.5343511450381677	-0.061068702290076333	0.916030534351145	144.6	120.6	-52.199999999999996
2017-08-17 18:12:46.474483	lat	lng	0.006591796875	0.010498046875	1.002197265625	2.6412213740458017	-3.8931297709923665	0.8244274809160306	144.6	120.6	-52.199999999999996
2017-08-17 18:12:46.498964	lat	lng	0.009765625	0.0166015625	1.003662109375	2.7786259541984735	-0.2595419847328244	0.8702290076335878	144.6	120.6	-52.199999999999996
2017-08-17 18:12:46.529007	lat	lng	0.01123046875	0.013427734375	1.002197265625	2.4732824427480917	0.04580152671755725	0.7786259541984732	144.6	120.6	-52.199999999999996
2017-08-17 18:12:46.553623	lat	lng	0.012939453125	0.015869140625	1.00439453125	2.4732824427480917	-0.12213740458015267	0.6717557251908397	144.6	120.6	-52.199999999999996
2017-08-17 18:12:46.583441	lat	lng	0.007568359375	0.014404296875	0.998046875	2.687022900763359	0.15267175572519084	0.5343511450381679	144.6	120.6	-52.199999999999996
2017-08-17 18:12:46.608368	lat	lng	0.009033203125	0.013916015625	0.998291015625	2.4427480916030535	-0.13740458015267176	0.7786259541984732	144.6	120.6	-52.199999999999996
2017-08-17 18:12:46.636486	lat	lng	0.0107421875	0.011962890625	1.0	2.7480916030534353	-0.21374045801526717	0.7786259541984732	144.6	120.6	-52.199999999999996
2017-08-17 18:12:46.666985	lat	lng	0.0087890625	0.01953125	1.005615234375	2.549618320610687	3.877862595419847	0.6106870229007634	144.6	120.6	-52.199999999999996
2017-08-17 18:12:46.688206	lat	lng	0.01171875	0.012451171875	1.003662109375	2.33587786259542	-0.015267175572519083	0.6412213740458015	144.6	120.6	-52.199999999999996
2017-08-17 18:12:46.711392	lat	lng	0.010986328125	0.015869140625	0.998046875	2.5801526717557253	-0.183206106870229	0.7786259541984732	144.6	120.6	-52.199999999999996
2017-08-17 18:12:46.736483	lat	lng	0.010009765625	0.0146484375	1.030029296875	2.595419847328244	-0.13740458015267176	0.7022900763358778	144.6	120.6	-52.199999999999996
2017-08-17 18:12:46.769754	lat	lng	0.00732421875	0.012451171875	1.00048828125	2.885496183206107	-0.10687022900763359	0.7938931297709924	144.6	120.6	-52.199999999999996
2017-08-17 18:12:46.793477	lat	lng	0.008056640625	0.01611328125	1.003173828125	2.427480916030534	-0.13740458015267176	0.7633587786259542	144.6	120.6	-52.199999999999996
2017-08-17 18:12:46.824726	lat	lng	0.01025390625	0.0166015625	1.0009765625	2.4732824427480917	-0.10687022900763359	0.8396946564885496	144.6	120.6	-52.199999999999996
2017-08-17 18:12:46.845636	lat	lng	0.009521484375	0.010009765625	1.00244140625	2.6564885496183206	-0.22900763358778625	0.6259541984732825	144.6	120.6	-52.199999999999996
2017-08-17 18:12:46.868052	lat	lng	0.0126953125	0.01416015625	1.000732421875	2.7480916030534353	-0.1984732824427481	0.9007633587786259	144.6	120.6	-52.199999999999996
2017-08-17 18:12:46.892719	lat	lng	0.00830078125	0.014892578125	1.004150390625	2.6106870229007635	-0.04580152671755725	0.8091603053435115	144.6	120.6	-52.199999999999996
2017-08-17 18:12:46.916606	lat	lng	0.009033203125	0.012939453125	0.99951171875	2.732824427480916	-0.07633587786259542	0.6564885496183206	144.6	120.6	-52.199999999999996
2017-08-17 18:12:46.941860	lat	lng	0.010986328125	0.016357421875	0.9970703125	2.595419847328244	0.04580152671755725	0.7633587786259542	144.6	120.6	-52.199999999999996
2017-08-17 18:12:46.966367	lat	lng	0.009765625	0.015869140625	0.999755859375	2.4885496183206106	0.04580152671755725	0.7786259541984732	144.6	120.6	-52.199999999999996
2017-08-17 18:12:46.992522	lat	lng	0.009521484375	0.01171875	0.99951171875	2.564885496183206	-0.16793893129770993	0.7480916030534351	144.6	120.6	-52.199999999999996
2017-08-17 18:12:47.016322	lat	lng	0.010986328125	0.011474609375	0.9951171875	2.763358778625954	3.8931297709923665	0.7786259541984732	144.6	120.6	-52.199999999999996
2017-08-17 18:12:47.046259	lat	lng	0.011474609375	0.01708984375	1.008056640625	2.7022900763358777	0.12213740458015267	0.8396946564885496	144.6	120.6	-52.199999999999996
2017-08-17 18:12:47.069747	lat	lng	0.00537109375	0.0146484375	0.99365234375	2.549618320610687	-0.015267175572519083	0.8091603053435115	144.6	120.6	-52.199999999999996
2017-08-17 18:12:47.093316	lat	lng	0.00830078125	0.01025390625	1.003173828125	2.7022900763358777	-0.07633587786259542	0.6106870229007634	144.6	120.6	-52.199999999999996
2017-08-17 18:12:47.117074	lat	lng	0.011474609375	0.013671875	1.00048828125	2.5801526717557253	0.16793893129770993	0.366412213740458	144.6	120.6	-52.199999999999996
2017-08-17 18:12:47.142019	lat	lng	0.00927734375	0.01416015625	0.993896484375	2.3053435114503817	-3.877862595419847	0.549618320610687	144.6	120.6	-52.199999999999996
2017-08-17 18:12:47.166764	lat	lng	0.010498046875	0.015625	0.969482421875	2.595419847328244	-0.015267175572519083	0.5343511450381679	144.6	120.6	-52.199999999999996
2017-08-17 18:12:47.189717	lat	lng	0.01025390625	0.011474609375	1.004638671875	2.366412213740458	0.030534351145038167	0.5954198473282443	144.6	120.6	-52.199999999999996
2017-08-17 18:12:47.213410	lat	lng	0.01025390625	0.01220703125	1.00146484375	2.595419847328244	-0.2595419847328244	0.9465648854961832	144.6	120.6	-52.199999999999996
2017-08-17 18:12:47.238643	lat	lng	0.00634765625	0.013427734375	1.006103515625	2.6564885496183206	-3.9083969465648853	0.6564885496183206	144.6	120.6	-52.199999999999996
2017-08-17 18:12:47.261566	lat	lng	0.011962890625	0.014404296875	0.998779296875	2.7480916030534353	0.0916030534351145	0.6412213740458015	144.6	120.6	-52.199999999999996
2017-08-17 18:12:47.293025	lat	lng	0.013671875	0.01611328125	1.029541015625	2.7938931297709924	-0.21374045801526717	0.5801526717557252	144.6	120.6	-52.199999999999996
2017-08-17 18:12:47.322429	lat	lng	0.0078125	0.016845703125	1.00244140625	2.519083969465649	0.061068702290076333	0.6412213740458015	144.6	120.6	-52.199999999999996
2017-08-17 18:12:47.348548	lat	lng	0.008544921875	0.016357421875	1.005859375	2.6259541984732824	-0.030534351145038167	0.732824427480916	144.6	120.6	-52.199999999999996
2017-08-17 18:12:47.371670	lat	lng	0.012451171875	0.0078125	0.997802734375	2.7938931297709924	-0.0916030534351145	0.7022900763358778	144.6	120.6	-52.199999999999996
2017-08-17 18:12:47.393979	lat	lng	0.0068359375	0.01318359375	0.998046875	2.5343511450381677	-0.04580152671755725	0.7786259541984732	144.6	120.6	-52.199999999999996
2017-08-17 18:12:47.416658	lat	lng	0.012451171875	0.00927734375	1.003662109375	2.6412213740458017	-0.0916030534351145	0.7022900763358778	144.6	120.6	-52.199999999999996
2017-08-17 18:12:47.439150	lat	lng	0.01171875	0.014404296875	0.995849609375	2.4427480916030535	-0.3053435114503817	0.7786259541984732	144.6	120.6	-52.199999999999996
2017-08-17 18:12:47.461587	lat	lng	0.01123046875	0.013916015625	1.001708984375	2.732824427480916	-0.2900763358778626	0.6870229007633588	144.6	120.6	-52.199999999999996
2017-08-17 18:12:47.484020	lat	lng	0.0087890625	0.01513671875	0.99853515625	2.4732824427480917	-0.07633587786259542	0.7633587786259542	144.6	120.6	-52.199999999999996
2017-08-17 18:12:47.506745	lat	lng	0.01220703125	0.014404296875	0.994384765625	2.4427480916030535	-0.16793893129770993	0.8091603053435115	144.6	120.6	-52.199999999999996
2017-08-17 18:12:47.529245	lat	lng	0.009765625	0.01513671875	1.00048828125	2.732824427480916	-0.183206106870229	0.7175572519083969	144.6	120.6	-52.199999999999996
2017-08-17 18:12:47.551714	lat	lng	0.013427734375	0.01318359375	1.00048828125	2.7022900763358777	-0.2748091603053435	0.6259541984732825	144.6	120.6	-52.199999999999996
2017-08-17 18:12:47.574070	lat	lng	0.008544921875	0.010498046875	0.995361328125	2.7480916030534353	0.061068702290076333	0.732824427480916	144.6	120.6	-52.199999999999996
2017-08-17 18:12:47.596623	lat	lng	0.007080078125	0.013916015625	0.999267578125	2.6259541984732824	0.015267175572519083	0.8091603053435115	144.6	120.6	-52.199999999999996
2017-08-17 18:12:47.619329	lat	lng	0.011962890625	0.012939453125	0.992919921875	2.4427480916030535	0.07633587786259542	0.5038167938931297	144.6	120.6	-52.199999999999996
2017-08-17 18:12:47.641740	lat	lng	0.009521484375	0.0146484375	1.001220703125	2.564885496183206	-0.22900763358778625	0.6717557251908397	144.6	120.6	-52.199999999999996
2017-08-17 18:12:47.664200	lat	lng	0.011962890625	0.01416015625	0.99658203125	2.7938931297709924	-3.9083969465648853	0.7633587786259542	144.6	120.6	-52.199999999999996
2017-08-17 18:12:47.686849	lat	lng	0.009765625	0.015380859375	1.005126953125	2.351145038167939	-0.10687022900763359	0.6412213740458015	144.6	120.6	-52.199999999999996
2017-08-17 18:12:47.709459	lat	lng	0.009521484375	0.014404296875	0.99755859375	2.6259541984732824	0.13740458015267176	0.8244274809160306	144.6	120.6	-52.199999999999996
2017-08-17 18:12:47.734233	lat	lng	0.008544921875	0.015625	0.999267578125	2.549618320610687	0.015267175572519083	0.7480916030534351	144.6	120.6	-52.199999999999996
2017-08-17 18:12:47.757129	lat	lng	0.005126953125	0.01513671875	1.00244140625	2.717557251908397	-0.061068702290076333	0.8549618320610687	144.6	120.6	-52.199999999999996
2017-08-17 18:12:47.786492	lat	lng	0.00732421875	0.01416015625	1.0029296875	2.931297709923664	-0.061068702290076333	0.7938931297709924	144.6	120.6	-52.199999999999996
2017-08-17 18:12:47.810037	lat	lng	0.008544921875	0.014892578125	1.0078125	2.6564885496183206	0.13740458015267176	0.7938931297709924	144.6	120.6	-52.199999999999996
2017-08-17 18:12:47.834361	lat	lng	0.009765625	0.019775390625	1.002197265625	2.6259541984732824	-0.061068702290076333	0.8091603053435115	144.6	120.6	-52.199999999999996
2017-08-17 18:12:47.857327	lat	lng	0.01123046875	0.01513671875	0.998046875	2.3969465648854964	0.2595419847328244	0.9007633587786259	144.6	120.6	-52.199999999999996
2017-08-17 18:12:47.884001	lat	lng	0.010498046875	0.012939453125	1.027587890625	2.6259541984732824	-0.1984732824427481	0.6564885496183206	144.6	120.6	-52.199999999999996
2017-08-17 18:12:47.905411	lat	lng	0.009765625	0.013427734375	1.0029296875	2.3206106870229006	0.015267175572519083	0.7022900763358778	144.6	120.6	-52.199999999999996
2017-08-17 18:12:47.929054	lat	lng	0.01416015625	0.014892578125	1.0048828125	2.7480916030534353	0.030534351145038167	0.7175572519083969	144.6	120.6	-52.199999999999996
2017-08-17 18:12:47.950029	lat	lng	0.007568359375	0.017333984375	1.00048828125	2.687022900763359	-0.2748091603053435	0.8091603053435115	144.6	120.6	-52.199999999999996
2017-08-17 18:12:47.974614	lat	lng	0.007568359375	0.01513671875	0.996826171875	2.549618320610687	0.10687022900763359	0.8854961832061069	144.6	120.6	-52.199999999999996
2017-08-17 18:12:47.996365	lat	lng	0.014404296875	0.01220703125	1.004638671875	2.6564885496183206	0.13740458015267176	0.6717557251908397	144.6	120.6	-52.199999999999996
2017-08-17 18:12:48.013849	lat	lng	0.01513671875	0.01513671875	1.001220703125	2.6412213740458017	0.13740458015267176	0.6412213740458015	144.6	120.6	-52.199999999999996
2017-08-17 18:12:48.031273	lat	lng	0.008056640625	0.010986328125	0.9912109375	2.6106870229007635	-0.0916030534351145	0.6717557251908397	144.6	120.6	-52.199999999999996
2017-08-17 18:12:48.048605	lat	lng	0.008056640625	0.0146484375	1.00244140625	2.732824427480916	-0.04580152671755725	0.8091603053435115	144.6	120.6	-52.199999999999996
2017-08-17 18:12:48.068357	lat	lng	0.009765625	0.015380859375	1.009765625	2.6106870229007635	-0.061068702290076333	0.6106870229007634	144.6	120.6	-52.199999999999996
2017-08-17 18:12:48.087010	lat	lng	0.006591796875	0.015869140625	1.00341796875	2.6717557251908395	-0.2595419847328244	0.5954198473282443	144.6	120.6	-52.199999999999996
2017-08-17 18:12:48.107359	lat	lng	0.01123046875	0.01513671875	1.00439453125	2.4427480916030535	-0.061068702290076333	0.7786259541984732	144.6	120.6	-52.199999999999996
2017-08-17 18:12:48.126580	lat	lng	0.00830078125	0.016357421875	0.99755859375	2.4580152671755724	0.04580152671755725	0.6564885496183206	144.6	120.6	-52.199999999999996
2017-08-17 18:12:48.143354	lat	lng	0.01123046875	0.01513671875	1.0	2.6259541984732824	0.183206106870229	0.732824427480916	144.6	120.6	-52.199999999999996
2017-08-17 18:12:48.160004	lat	lng	0.008056640625	0.009033203125	0.997314453125	2.717557251908397	-0.1984732824427481	0.6259541984732825	144.6	120.6	-52.199999999999996
2017-08-17 18:12:48.177042	lat	lng	0.01025390625	0.016357421875	1.000732421875	2.732824427480916	-0.10687022900763359	0.5801526717557252	144.6	120.6	-52.199999999999996
2017-08-17 18:12:48.195898	lat	lng	0.008544921875	0.0107421875	1.005859375	2.687022900763359	-0.13740458015267176	0.7786259541984732	144.6	120.6	-52.199999999999996
2017-08-17 18:12:48.215249	lat	lng	0.0087890625	0.0166015625	1.001220703125	2.5801526717557253	-0.22900763358778625	0.8091603053435115	144.6	120.6	-52.199999999999996
2017-08-17 18:12:48.234257	lat	lng	0.0146484375	0.015869140625	1.005859375	2.4885496183206106	-0.183206106870229	0.5343511450381679	144.6	120.6	-52.199999999999996
2017-08-17 18:12:48.252196	lat	lng	0.0087890625	0.0126953125	1.00439453125	2.6412213740458017	0.1984732824427481	0.6870229007633588	144.6	120.6	-52.199999999999996
2017-08-17 18:12:48.271324	lat	lng	0.0068359375	0.0166015625	0.9970703125	2.351145038167939	-0.21374045801526717	0.7480916030534351	144.6	120.6	-52.199999999999996
2017-08-17 18:12:48.290010	lat	lng	0.01123046875	0.017822265625	1.00048828125	2.3053435114503817	-0.15267175572519084	0.5648854961832062	144.6	120.6	-52.199999999999996
2017-08-17 18:12:48.309679	lat	lng	0.008544921875	0.012939453125	1.001220703125	2.6717557251908395	-0.15267175572519084	0.732824427480916	144.6	120.6	-52.199999999999996
2017-08-17 18:12:48.332198	lat	lng	0.010009765625	0.010498046875	1.0048828125	2.4122137404580153	-0.1984732824427481	0.6564885496183206	144.6	120.6	-52.199999999999996
2017-08-17 18:12:48.350110	lat	lng	0.009765625	0.017333984375	0.997314453125	2.6106870229007635	0.030534351145038167	0.732824427480916	144.6	120.6	-52.199999999999996
2017-08-17 18:12:48.366488	lat	lng	0.009521484375	0.0146484375	0.997802734375	2.564885496183206	-0.24427480916030533	0.3969465648854962	144.6	120.6	-52.199999999999996
2017-08-17 18:12:48.382874	lat	lng	0.010498046875	0.01416015625	1.00341796875	2.4885496183206106	-0.061068702290076333	0.7022900763358778	144.6	120.6	-52.199999999999996
2017-08-17 18:12:48.399729	lat	lng	0.012451171875	0.0107421875	0.999755859375	2.6412213740458017	-0.030534351145038167	0.6259541984732825	144.6	120.6	-52.199999999999996
2017-08-17 18:12:48.416981	lat	lng	0.0078125	0.011962890625	1.001953125	2.564885496183206	0.2900763358778626	0.7480916030534351	144.6	120.6	-52.199999999999996
2017-08-17 18:12:48.433694	lat	lng	0.008544921875	0.016357421875	1.000732421875	2.8091603053435112	0.04580152671755725	0.7786259541984732	144.6	120.6	-52.199999999999996
2017-08-17 18:12:48.450094	lat	lng	0.011474609375	0.018798828125	1.006591796875	2.8091603053435112	-0.13740458015267176	0.5801526717557252	144.6	120.6	-52.199999999999996
2017-08-17 18:12:48.466564	lat	lng	0.008056640625	0.012451171875	0.99755859375	2.4580152671755724	-0.10687022900763359	0.7938931297709924	144.6	120.6	-52.199999999999996
2017-08-17 18:12:48.482986	lat	lng	0.01025390625	0.011474609375	1.0029296875	2.687022900763359	-0.15267175572519084	0.6717557251908397	144.6	120.6	-52.199999999999996
2017-08-17 18:12:48.499356	lat	lng	0.009521484375	0.01025390625	1.005859375	2.5343511450381677	0.13740458015267176	0.7175572519083969	144.6	120.6	-52.199999999999996
2017-08-17 18:12:48.516023	lat	lng	0.010009765625	0.0146484375	1.00048828125	2.5801526717557253	-0.061068702290076333	0.7938931297709924	144.6	120.6	-52.199999999999996
2017-08-17 18:12:48.534334	lat	lng	0.009521484375	0.0146484375	0.99951171875	2.6259541984732824	-0.07633587786259542	0.8244274809160306	144.6	120.6	-52.199999999999996
2017-08-17 18:12:48.555186	lat	lng	0.009521484375	0.01318359375	1.008056640625	2.6564885496183206	0.061068702290076333	0.7175572519083969	144.6	120.6	-52.199999999999996
2017-08-17 18:12:48.576212	lat	lng	0.00634765625	0.015380859375	0.9990234375	2.6564885496183206	-0.07633587786259542	0.6870229007633588	144.6	120.6	-52.199999999999996
2017-08-17 18:12:48.597399	lat	lng	0.01318359375	0.01171875	1.002685546875	2.7480916030534353	-0.030534351145038167	0.7786259541984732	144.6	120.6	-52.199999999999996
2017-08-17 18:12:48.620699	lat	lng	0.0068359375	0.014892578125	1.00537109375	2.4122137404580153	0.13740458015267176	0.7786259541984732	144.6	120.6	-52.199999999999996
2017-08-17 18:12:48.641483	lat	lng	0.00732421875	0.01953125	1.00146484375	2.8091603053435112	0.061068702290076333	0.5954198473282443	144.6	120.6	-52.199999999999996
2017-08-17 18:12:48.662295	lat	lng	0.0078125	0.0166015625	0.99560546875	2.717557251908397	0.015267175572519083	0.7175572519083969	144.6	120.6	-52.199999999999996
2017-08-17 18:12:48.683754	lat	lng	0.009033203125	0.013427734375	1.00048828125	2.8396946564885495	0.07633587786259542	0.7022900763358778	144.6	120.6	-52.199999999999996
2017-08-17 18:12:48.704582	lat	lng	0.00634765625	0.017822265625	0.999755859375	2.7480916030534353	-0.015267175572519083	0.7633587786259542	144.6	120.6	-52.199999999999996
2017-08-17 18:12:48.725630	lat	lng	0.008544921875	0.01953125	1.0029296875	2.732824427480916	3.877862595419847	0.6870229007633588	144.6	120.6	-52.199999999999996
2017-08-17 18:12:48.746352	lat	lng	0.0126953125	0.01171875	1.00341796875	2.6259541984732824	-0.04580152671755725	0.7938931297709924	144.6	120.6	-52.199999999999996
2017-08-17 18:12:48.767003	lat	lng	0.0087890625	0.013427734375	1.0	2.564885496183206	-0.0916030534351145	0.7480916030534351	144.6	120.6	-52.199999999999996
2017-08-17 18:12:48.787658	lat	lng	0.01123046875	0.01123046875	0.99658203125	2.519083969465649	0.030534351145038167	0.9312977099236641	144.6	120.6	-52.199999999999996
2017-08-17 18:12:48.808275	lat	lng	0.0107421875	0.020263671875	0.997802734375	2.5801526717557253	-0.1984732824427481	0.6106870229007634	144.6	120.6	-52.199999999999996
2017-08-17 18:12:48.829098	lat	lng	0.008056640625	0.012451171875	1.029541015625	2.7786259541984735	-0.10687022900763359	0.7175572519083969	144.6	120.6	-52.199999999999996
2017-08-17 18:12:48.849955	lat	lng	0.009033203125	0.0126953125	1.0029296875	2.595419847328244	0.04580152671755725	0.5648854961832062	144.6	120.6	-52.199999999999996
2017-08-17 18:12:48.870752	lat	lng	0.01123046875	0.015380859375	0.998046875	2.564885496183206	-0.13740458015267176	0.8244274809160306	144.6	120.6	-52.199999999999996
2017-08-17 18:12:48.890803	lat	lng	0.008544921875	0.0146484375	1.00048828125	2.732824427480916	-0.12213740458015267	0.6259541984732825	144.6	120.6	-52.199999999999996
2017-08-17 18:12:48.912133	lat	lng	0.010009765625	0.01220703125	1.001220703125	2.595419847328244	-0.10687022900763359	0.7633587786259542	144.6	120.6	-52.199999999999996
2017-08-17 18:12:48.932770	lat	lng	0.009521484375	0.01123046875	1.0029296875	2.8091603053435112	-0.10687022900763359	0.7175572519083969	144.6	120.6	-52.199999999999996
2017-08-17 18:12:48.953380	lat	lng	0.01416015625	0.01416015625	1.00146484375	2.7022900763358777	-0.22900763358778625	0.8396946564885496	144.6	120.6	-52.199999999999996
2017-08-17 18:12:48.973970	lat	lng	0.008544921875	0.014892578125	0.996826171875	2.6412213740458017	-0.15267175572519084	0.8244274809160306	144.6	120.6	-52.199999999999996
2017-08-17 18:12:48.995109	lat	lng	0.010009765625	0.01416015625	0.996337890625	2.5343511450381677	-0.015267175572519083	0.5801526717557252	144.6	120.6	-52.199999999999996
2017-08-17 18:12:49.017251	lat	lng	0.011962890625	0.01806640625	0.99755859375	2.519083969465649	-0.061068702290076333	0.8396946564885496	144.6	120.6	-52.199999999999996
2017-08-17 18:12:49.039525	lat	lng	0.010009765625	0.015380859375	1.00048828125	2.549618320610687	3.8931297709923665	0.7175572519083969	144.6	120.6	-52.199999999999996
2017-08-17 18:12:49.063798	lat	lng	0.008056640625	0.01123046875	0.997802734375	2.427480916030534	-0.12213740458015267	0.7786259541984732	144.6	120.6	-52.199999999999996
2017-08-17 18:12:49.088582	lat	lng	0.0107421875	0.015380859375	0.999267578125	2.717557251908397	3.8625954198473282	0.9465648854961832	144.6	120.6	-52.199999999999996
2017-08-17 18:12:49.114638	lat	lng	0.006591796875	0.014892578125	0.997802734375	2.4580152671755724	0.030534351145038167	0.6106870229007634	144.6	120.6	-52.199999999999996
2017-08-17 18:12:49.137264	lat	lng	0.010009765625	0.014404296875	1.00341796875	2.763358778625954	-0.183206106870229	0.7480916030534351	144.6	120.6	-52.199999999999996
2017-08-17 18:12:49.162270	lat	lng	0.01220703125	0.016845703125	1.00634765625	2.519083969465649	-0.16793893129770993	0.916030534351145	144.6	120.6	-52.199999999999996
2017-08-17 18:12:49.189343	lat	lng	0.007568359375	0.015380859375	1.003662109375	2.6564885496183206	-0.15267175572519084	0.7175572519083969	144.6	120.6	-52.199999999999996
2017-08-17 18:12:49.213275	lat	lng	0.01318359375	0.0166015625	0.999267578125	2.6106870229007635	-0.061068702290076333	0.7480916030534351	144.6	120.6	-52.199999999999996
2017-08-17 18:12:49.248611	lat	lng	0.0078125	0.01416015625	0.99853515625	2.7480916030534353	-0.13740458015267176	0.8244274809160306	144.6	120.6	-52.199999999999996
2017-08-17 18:12:49.265952	lat	lng	0.00390625	0.014892578125	0.999755859375	2.7022900763358777	-0.12213740458015267	0.7938931297709924	144.6	120.6	-52.199999999999996
2017-08-17 18:12:49.283920	lat	lng	0.01123046875	0.012939453125	1.01171875	2.50381679389313	0.0916030534351145	0.7786259541984732	144.6	120.6	-52.199999999999996
2017-08-17 18:12:49.300702	lat	lng	0.0107421875	0.015869140625	1.029052734375	2.717557251908397	0.12213740458015267	0.6259541984732825	144.6	120.6	-52.199999999999996
2017-08-17 18:12:49.322314	lat	lng	0.00927734375	0.014404296875	0.99951171875	2.6259541984732824	0.04580152671755725	0.7175572519083969	144.6	120.6	-52.199999999999996
2017-08-17 18:12:49.344548	lat	lng	0.009521484375	0.017822265625	1.0029296875	2.763358778625954	0.030534351145038167	0.549618320610687	144.6	120.6	-52.199999999999996
2017-08-17 18:12:49.366266	lat	lng	0.008544921875	0.014892578125	0.97216796875	2.427480916030534	0.04580152671755725	0.8702290076335878	144.6	120.6	-52.199999999999996
2017-08-17 18:12:49.389002	lat	lng	0.00634765625	0.01318359375	1.005615234375	2.8244274809160306	0.0	0.7175572519083969	144.6	120.6	-52.199999999999996
2017-08-17 18:12:49.410593	lat	lng	0.00830078125	0.017822265625	1.0029296875	2.4732824427480917	-0.0916030534351145	0.44274809160305345	144.6	120.6	-52.199999999999996
2017-08-17 18:12:49.433387	lat	lng	0.009033203125	0.01708984375	1.000732421875	2.763358778625954	0.015267175572519083	0.6259541984732825	144.6	120.6	-52.199999999999996
2017-08-17 18:12:49.455197	lat	lng	0.010498046875	0.0185546875	0.997802734375	2.6106870229007635	-3.8625954198473282	0.6412213740458015	144.6	120.6	-52.199999999999996
2017-08-17 18:12:49.476473	lat	lng	0.0078125	0.015380859375	0.998046875	2.6259541984732824	0.07633587786259542	0.4122137404580153	144.6	120.6	-52.199999999999996
2017-08-17 18:12:49.499775	lat	lng	0.009521484375	0.017578125	1.0009765625	2.6106870229007635	-0.04580152671755725	0.7022900763358778	144.6	120.6	-52.199999999999996
2017-08-17 18:12:49.522699	lat	lng	0.01025390625	0.014404296875	1.0068359375	2.931297709923664	0.0916030534351145	0.9618320610687023	144.6	120.6	-52.199999999999996
2017-08-17 18:12:49.545245	lat	lng	0.013427734375	0.017333984375	1.00146484375	2.564885496183206	3.8931297709923665	0.6870229007633588	144.6	120.6	-52.199999999999996
2017-08-17 18:12:49.566427	lat	lng	0.01220703125	0.012939453125	0.990478515625	2.8244274809160306	-0.16793893129770993	0.7480916030534351	144.6	120.6	-52.199999999999996
2017-08-17 18:12:49.588517	lat	lng	0.009521484375	0.015380859375	1.000244140625	2.0763358778625953	-0.04580152671755725	0.7938931297709924	144.6	120.6	-52.199999999999996
2017-08-17 18:12:49.612859	lat	lng	0.009033203125	0.015380859375	0.99365234375	2.8091603053435112	0.0916030534351145	0.8702290076335878	144.6	120.6	-52.199999999999996
2017-08-17 18:12:49.638562	lat	lng	0.013671875	0.013916015625	0.998046875	2.6106870229007635	-0.07633587786259542	0.7786259541984732	144.6	120.6	-52.199999999999996
2017-08-17 18:12:49.662291	lat	lng	0.010498046875	0.014892578125	1.001708984375	2.4732824427480917	0.0916030534351145	0.7938931297709924	144.6	120.6	-52.199999999999996
2017-08-17 18:12:49.684669	lat	lng	0.011474609375	0.015625	0.9990234375	2.6564885496183206	-0.15267175572519084	0.7480916030534351	144.6	120.6	-52.199999999999996
2017-08-17 18:12:49.710657	lat	lng	0.009521484375	0.016357421875	0.999755859375	2.4427480916030535	-0.15267175572519084	0.5954198473282443	144.6	120.6	-52.199999999999996
2017-08-17 18:12:49.739960	lat	lng	0.00830078125	0.015625	0.993896484375	2.4122137404580153	-0.183206106870229	0.916030534351145	144.6	120.6	-52.199999999999996
2017-08-17 18:12:49.760937	lat	lng	0.00732421875	0.01123046875	1.0068359375	2.6259541984732824	-0.015267175572519083	0.8244274809160306	144.6	120.6	-52.199999999999996
2017-08-17 18:12:49.781868	lat	lng	0.0068359375	0.013671875	0.996826171875	2.6259541984732824	0.12213740458015267	0.9007633587786259	144.6	120.6	-52.199999999999996
2017-08-17 18:12:49.803168	lat	lng	0.00927734375	0.0146484375	1.004638671875	2.717557251908397	-0.15267175572519084	0.7022900763358778	144.6	120.6	-52.199999999999996
2017-08-17 18:12:49.824723	lat	lng	0.010009765625	0.01318359375	1.00390625	2.4732824427480917	0.030534351145038167	0.8396946564885496	144.6	120.6	-52.199999999999996
2017-08-17 18:12:49.845602	lat	lng	0.007568359375	0.015380859375	1.000244140625	2.6106870229007635	-0.030534351145038167	0.6870229007633588	144.6	120.6	-52.199999999999996
2017-08-17 18:12:49.867665	lat	lng	0.0048828125	0.012939453125	1.00439453125	2.7480916030534353	0.04580152671755725	0.6870229007633588	144.6	120.6	-52.199999999999996
2017-08-17 18:12:49.887937	lat	lng	0.01025390625	0.0146484375	1.0029296875	2.549618320610687	-0.12213740458015267	0.732824427480916	144.6	120.6	-52.199999999999996
2017-08-17 18:12:49.908262	lat	lng	0.0087890625	0.014404296875	0.999755859375	2.9770992366412212	-0.22900763358778625	0.6564885496183206	144.6	120.6	-52.199999999999996
2017-08-17 18:12:50.368047	lat	lng	0.00732421875	0.01318359375	0.986083984375	2.732824427480916	0.10687022900763359	0.9770992366412213	144.6	120.6	-52.199999999999996
2017-08-17 18:12:50.391199	lat	lng	0.008056640625	0.0166015625	1.00048828125	2.6564885496183206	-0.33587786259541985	0.6412213740458015	144.6	120.6	-52.199999999999996
2017-08-17 18:12:50.413446	lat	lng	0.008544921875	0.01708984375	0.994873046875	2.885496183206107	-0.22900763358778625	0.8244274809160306	144.6	120.6	-52.199999999999996
2017-08-17 18:12:50.436392	lat	lng	0.01025390625	0.013427734375	0.994384765625	2.595419847328244	0.04580152671755725	0.6564885496183206	144.6	120.6	-52.199999999999996
2017-08-17 18:12:50.458504	lat	lng	0.007568359375	0.016357421875	1.029052734375	2.5801526717557253	-0.061068702290076333	0.7938931297709924	144.6	120.6	-52.199999999999996
2017-08-17 18:12:50.480184	lat	lng	0.00830078125	0.0146484375	0.988525390625	2.9160305343511452	-0.061068702290076333	0.8702290076335878	144.6	120.6	-52.199999999999996
2017-08-17 18:12:50.502123	lat	lng	0.009765625	0.017333984375	0.99658203125	2.381679389312977	0.061068702290076333	0.6106870229007634	144.6	120.6	-52.199999999999996
2017-08-17 18:12:50.525304	lat	lng	0.008544921875	0.012451171875	0.9951171875	2.7786259541984735	-0.1984732824427481	0.6564885496183206	144.6	120.6	-52.199999999999996
2017-08-17 18:12:50.550078	lat	lng	0.00634765625	0.01318359375	0.9970703125	2.763358778625954	-0.22900763358778625	0.7480916030534351	144.6	120.6	-52.199999999999996
2017-08-17 18:12:50.572760	lat	lng	0.007568359375	0.013916015625	1.004150390625	2.885496183206107	-0.15267175572519084	0.9465648854961832	144.6	120.6	-52.199999999999996
2017-08-17 18:12:50.599449	lat	lng	0.01171875	0.010498046875	0.99365234375	2.763358778625954	-0.015267175572519083	0.732824427480916	144.6	120.6	-52.199999999999996
2017-08-17 18:12:50.624747	lat	lng	0.013427734375	0.0126953125	1.002685546875	2.8091603053435112	-0.061068702290076333	0.732824427480916	144.6	120.6	-52.199999999999996
2017-08-17 18:12:50.647441	lat	lng	0.010498046875	0.01416015625	0.998779296875	2.5801526717557253	-0.10687022900763359	0.7633587786259542	144.6	120.6	-52.199999999999996
2017-08-17 18:12:50.671078	lat	lng	0.0087890625	0.0166015625	0.99951171875	2.5343511450381677	-0.015267175572519083	0.8244274809160306	144.6	120.6	-52.199999999999996
2017-08-17 18:12:50.698272	lat	lng	0.01025390625	0.01318359375	0.9931640625	2.6717557251908395	-0.030534351145038167	0.48854961832061067	144.6	120.6	-52.199999999999996
2017-08-17 18:12:50.720173	lat	lng	0.008544921875	0.015380859375	0.99609375	2.549618320610687	-0.13740458015267176	0.732824427480916	144.6	120.6	-52.199999999999996
2017-08-17 18:12:50.743058	lat	lng	0.011962890625	0.015869140625	1.003662109375	2.4885496183206106	0.061068702290076333	0.7175572519083969	144.6	120.6	-52.199999999999996
2017-08-17 18:12:50.766862	lat	lng	0.007080078125	0.010498046875	1.00048828125	2.687022900763359	0.24427480916030533	0.8854961832061069	144.6	120.6	-52.199999999999996
2017-08-17 18:12:50.789974	lat	lng	0.011962890625	0.0126953125	0.998779296875	2.7022900763358777	-0.183206106870229	0.6106870229007634	144.6	120.6	-52.199999999999996
2017-08-17 18:12:50.812966	lat	lng	0.010009765625	0.013671875	0.997802734375	2.5801526717557253	-0.07633587786259542	0.5954198473282443	144.6	120.6	-52.199999999999996
2017-08-17 18:12:50.837367	lat	lng	0.008544921875	0.01708984375	0.995849609375	2.6564885496183206	-0.1984732824427481	0.9923664122137404	144.6	120.6	-52.199999999999996
2017-08-17 18:12:50.862164	lat	lng	0.004638671875	0.0146484375	1.007080078125	2.4580152671755724	-0.183206106870229	0.6259541984732825	144.6	120.6	-52.199999999999996
2017-08-17 18:12:50.885988	lat	lng	0.013916015625	0.015869140625	1.002197265625	2.763358778625954	-0.07633587786259542	0.6564885496183206	144.6	120.6	-52.199999999999996
2017-08-17 18:12:50.909950	lat	lng	0.010986328125	0.017822265625	1.029296875	2.7022900763358777	-0.07633587786259542	0.7022900763358778	144.6	120.6	-52.199999999999996
2017-08-17 18:12:50.932828	lat	lng	0.010498046875	0.015869140625	0.99169921875	2.7480916030534353	-0.07633587786259542	0.8244274809160306	144.6	120.6	-52.199999999999996
2017-08-17 18:12:50.957057	lat	lng	0.0078125	0.018310546875	0.997314453125	2.8396946564885495	-0.4732824427480916	0.5038167938931297	144.6	120.6	-52.199999999999996
2017-08-17 18:12:50.978397	lat	lng	0.0107421875	0.013427734375	0.9951171875	2.8396946564885495	0.015267175572519083	0.8396946564885496	144.6	120.6	-52.199999999999996
2017-08-17 18:12:51.007217	lat	lng	0.009521484375	0.009033203125	1.00634765625	2.854961832061069	0.07633587786259542	0.916030534351145	144.6	120.6	-52.199999999999996
2017-08-17 18:12:51.028334	lat	lng	0.0087890625	0.011962890625	1.0	2.3969465648854964	-0.15267175572519084	0.9465648854961832	144.6	120.6	-52.199999999999996
2017-08-17 18:12:51.050993	lat	lng	0.010009765625	0.017578125	0.99365234375	2.7022900763358777	0.015267175572519083	0.5801526717557252	144.6	120.6	-52.199999999999996
2017-08-17 18:12:51.072848	lat	lng	0.0107421875	0.014404296875	0.999755859375	2.8091603053435112	0.0	0.9312977099236641	144.6	120.6	-52.199999999999996
2017-08-17 18:12:51.093563	lat	lng	0.003173828125	0.0126953125	0.997314453125	2.6106870229007635	-0.07633587786259542	0.6717557251908397	144.6	120.6	-52.199999999999996
2017-08-17 18:12:51.126010	lat	lng	0.008056640625	0.01513671875	0.995361328125	2.687022900763359	0.2900763358778626	0.8854961832061069	144.6	120.6	-52.199999999999996
2017-08-17 18:12:51.147112	lat	lng	0.011962890625	0.014404296875	1.002197265625	2.6717557251908395	-0.0916030534351145	0.8244274809160306	144.6	120.6	-52.199999999999996
2017-08-17 18:12:51.169432	lat	lng	0.005859375	0.01708984375	1.001220703125	2.6564885496183206	-0.13740458015267176	0.8549618320610687	144.6	120.6	-52.199999999999996
2017-08-17 18:12:51.191324	lat	lng	0.01171875	0.01513671875	0.968994140625	2.7786259541984735	0.13740458015267176	0.7022900763358778	144.6	120.6	-52.199999999999996
2017-08-17 18:12:51.213689	lat	lng	0.010009765625	0.016357421875	1.00244140625	2.366412213740458	0.07633587786259542	0.8396946564885496	144.6	120.6	-52.199999999999996
2017-08-17 18:12:51.237635	lat	lng	0.007080078125	0.01025390625	1.0029296875	2.564885496183206	0.0	0.7786259541984732	144.6	120.6	-52.199999999999996
2017-08-17 18:12:51.260120	lat	lng	0.0107421875	0.01513671875	0.995361328125	2.595419847328244	0.13740458015267176	0.6412213740458015	144.6	120.6	-52.199999999999996
2017-08-17 18:12:51.285662	lat	lng	0.009033203125	0.01220703125	1.00244140625	2.4580152671755724	-0.04580152671755725	0.7938931297709924	144.6	120.6	-52.199999999999996
2017-08-17 18:12:51.307556	lat	lng	0.01123046875	0.01416015625	1.007080078125	2.6564885496183206	-0.2595419847328244	0.8854961832061069	144.6	120.6	-52.199999999999996
2017-08-17 18:12:51.332094	lat	lng	0.01123046875	0.01513671875	1.000732421875	2.6259541984732824	-0.061068702290076333	0.6717557251908397	144.6	120.6	-52.199999999999996
2017-08-17 18:12:51.355128	lat	lng	0.007568359375	0.013671875	1.010009765625	2.50381679389313	-0.33587786259541985	0.7786259541984732	144.6	120.6	-52.199999999999996
2017-08-17 18:12:51.378423	lat	lng	0.007568359375	0.011474609375	0.995849609375	2.732824427480916	0.13740458015267176	0.7175572519083969	144.6	120.6	-52.199999999999996
2017-08-17 18:12:51.401344	lat	lng	0.008544921875	0.017333984375	1.00048828125	2.717557251908397	-3.8625954198473282	0.549618320610687	144.6	120.6	-52.199999999999996
2017-08-17 18:12:51.424285	lat	lng	0.01123046875	0.015380859375	0.9697265625	2.4580152671755724	-0.16793893129770993	0.8854961832061069	144.6	120.6	-52.199999999999996
2017-08-17 18:12:51.451913	lat	lng	0.0087890625	0.014892578125	1.0048828125	2.6259541984732824	-0.21374045801526717	0.7480916030534351	144.6	120.6	-52.199999999999996
2017-08-17 18:12:51.474310	lat	lng	0.011474609375	0.01611328125	1.028564453125	2.50381679389313	-0.04580152671755725	0.732824427480916	144.6	120.6	-52.199999999999996
2017-08-17 18:12:51.497426	lat	lng	0.01171875	0.014892578125	0.999755859375	2.549618320610687	-0.24427480916030533	0.5648854961832062	144.6	120.6	-52.199999999999996
2017-08-17 18:12:51.524040	lat	lng	0.009765625	0.010009765625	1.0048828125	2.7938931297709924	-0.061068702290076333	0.6870229007633588	144.6	120.6	-52.199999999999996
2017-08-17 18:12:51.546510	lat	lng	0.010986328125	0.015380859375	1.00732421875	2.763358778625954	-0.2900763358778626	0.6717557251908397	144.6	120.6	-52.199999999999996
2017-08-17 18:12:51.567957	lat	lng	0.00830078125	0.0166015625	0.99951171875	2.6412213740458017	0.0916030534351145	0.7480916030534351	144.6	120.6	-52.199999999999996
2017-08-17 18:12:51.589062	lat	lng	0.00732421875	0.015380859375	0.996826171875	2.5343511450381677	-0.2595419847328244	0.9007633587786259	144.6	120.6	-52.199999999999996
2017-08-17 18:12:51.612872	lat	lng	0.010986328125	0.013427734375	0.99951171875	2.595419847328244	-0.24427480916030533	0.7480916030534351	144.6	120.6	-52.199999999999996
2017-08-17 18:12:51.634031	lat	lng	0.00634765625	0.013916015625	0.99658203125	2.5801526717557253	-0.21374045801526717	0.8091603053435115	144.6	120.6	-52.199999999999996
2017-08-17 18:12:51.656542	lat	lng	0.009765625	0.014404296875	1.000732421875	2.549618320610687	-0.16793893129770993	0.8091603053435115	144.6	120.6	-52.199999999999996
2017-08-17 18:12:51.678755	lat	lng	0.009765625	0.015869140625	0.998046875	2.50381679389313	-0.2595419847328244	0.6717557251908397	144.6	120.6	-52.199999999999996
2017-08-17 18:12:51.701113	lat	lng	0.0068359375	0.008056640625	1.001708984375	2.6564885496183206	-0.21374045801526717	0.8854961832061069	144.6	120.6	-52.199999999999996
2017-08-17 18:12:51.723227	lat	lng	0.00927734375	0.013427734375	1.00537109375	2.763358778625954	-0.061068702290076333	0.7938931297709924	144.6	120.6	-52.199999999999996
2017-08-17 18:12:51.745484	lat	lng	0.00830078125	0.01171875	1.002197265625	2.7480916030534353	-0.1984732824427481	0.6564885496183206	144.6	120.6	-52.199999999999996
2017-08-17 18:12:51.767869	lat	lng	0.009521484375	0.01416015625	1.004638671875	2.8091603053435112	0.061068702290076333	0.8854961832061069	144.6	120.6	-52.199999999999996
2017-08-17 18:12:51.790011	lat	lng	0.0107421875	0.01318359375	1.001953125	2.6717557251908395	-0.015267175572519083	0.8091603053435115	144.6	120.6	-52.199999999999996
2017-08-17 18:12:51.812079	lat	lng	0.006591796875	0.021240234375	0.998291015625	2.6564885496183206	-0.3969465648854962	0.4580152671755725	144.6	120.6	-52.199999999999996
2017-08-17 18:12:51.834181	lat	lng	0.012939453125	0.020751953125	0.99609375	2.854961832061069	-0.183206106870229	0.6717557251908397	144.6	120.6	-52.199999999999996
2017-08-17 18:12:51.855336	lat	lng	0.01220703125	0.018798828125	0.99267578125	2.5801526717557253	-3.9083969465648853	0.6870229007633588	144.6	120.6	-52.199999999999996
2017-08-17 18:12:51.876172	lat	lng	0.00927734375	0.012939453125	1.0009765625	2.549618320610687	-0.015267175572519083	0.5801526717557252	144.6	120.6	-52.199999999999996
2017-08-17 18:12:51.898317	lat	lng	0.00732421875	0.01611328125	0.999267578125	2.854961832061069	-3.9083969465648853	0.6564885496183206	144.6	120.6	-52.199999999999996
2017-08-17 18:12:51.920611	lat	lng	0.01123046875	0.0166015625	0.995361328125	2.717557251908397	-0.12213740458015267	0.7480916030534351	144.6	120.6	-52.199999999999996
2017-08-17 18:12:51.942969	lat	lng	0.008544921875	0.014892578125	0.996826171875	2.4427480916030535	0.16793893129770993	0.8549618320610687	144.6	120.6	-52.199999999999996
2017-08-17 18:12:51.965175	lat	lng	0.013671875	0.0126953125	1.005859375	2.687022900763359	-0.0916030534351145	0.7938931297709924	144.6	120.6	-52.199999999999996
2017-08-17 18:12:51.987440	lat	lng	0.006591796875	0.015869140625	0.995849609375	2.4732824427480917	0.0	0.6564885496183206	144.6	120.6	-52.199999999999996
2017-08-17 18:12:52.009648	lat	lng	0.012451171875	0.0126953125	1.00341796875	2.900763358778626	-0.183206106870229	0.7022900763358778	144.6	120.6	-52.199999999999996
2017-08-17 18:12:52.031929	lat	lng	0.0107421875	0.013427734375	0.9970703125	2.8091603053435112	-0.07633587786259542	0.6259541984732825	144.6	120.6	-52.199999999999996
2017-08-17 18:12:52.054211	lat	lng	0.00927734375	0.009765625	0.99365234375	2.7786259541984735	-0.030534351145038167	0.916030534351145	144.6	120.6	-52.199999999999996
2017-08-17 18:12:52.076548	lat	lng	0.0087890625	0.011474609375	1.00146484375	2.5801526717557253	-0.0916030534351145	0.8091603053435115	144.6	120.6	-52.199999999999996
2017-08-17 18:12:52.098869	lat	lng	0.010498046875	0.016357421875	0.991943359375	2.6412213740458017	0.183206106870229	0.7175572519083969	144.6	120.6	-52.199999999999996
2017-08-17 18:12:52.121090	lat	lng	0.009765625	0.01708984375	1.005615234375	2.8396946564885495	-0.2748091603053435	0.8854961832061069	144.6	120.6	-52.199999999999996
2017-08-17 18:12:52.143459	lat	lng	0.010009765625	0.013916015625	1.00146484375	2.381679389312977	-0.13740458015267176	0.4732824427480916	144.6	120.6	-52.199999999999996
2017-08-17 18:12:52.165679	lat	lng	0.0078125	0.0166015625	0.99755859375	2.549618320610687	0.0	0.5954198473282443	144.6	120.6	-52.199999999999996
2017-08-17 18:12:52.187675	lat	lng	0.01025390625	0.018798828125	0.996337890625	2.4580152671755724	0.07633587786259542	0.7022900763358778	144.6	120.6	-52.199999999999996
2017-08-17 18:12:52.208374	lat	lng	0.005615234375	0.01416015625	1.0029296875	2.7938931297709924	0.061068702290076333	0.7938931297709924	144.6	120.6	-52.199999999999996
2017-08-17 18:12:52.231309	lat	lng	0.010986328125	0.0107421875	1.004150390625	2.6106870229007635	-0.0916030534351145	0.6259541984732825	144.6	120.6	-52.199999999999996
2017-08-17 18:12:52.252295	lat	lng	0.01025390625	0.017578125	1.002685546875	2.6564885496183206	-0.07633587786259542	0.7786259541984732	144.6	120.6	-52.199999999999996
2017-08-17 18:12:52.273125	lat	lng	0.010009765625	0.01318359375	1.005126953125	2.6717557251908395	0.030534351145038167	0.44274809160305345	144.6	120.6	-52.199999999999996
2017-08-17 18:12:52.294178	lat	lng	0.012939453125	0.01171875	1.003662109375	2.5343511450381677	0.2900763358778626	0.7633587786259542	144.6	120.6	-52.199999999999996
2017-08-17 18:12:52.315113	lat	lng	0.010009765625	0.012939453125	0.997802734375	2.564885496183206	-0.04580152671755725	0.9618320610687023	144.6	120.6	-52.199999999999996
2017-08-17 18:12:52.336078	lat	lng	0.009521484375	0.016357421875	0.996826171875	2.763358778625954	-0.030534351145038167	0.6259541984732825	144.6	120.6	-52.199999999999996
2017-08-17 18:12:52.357435	lat	lng	0.006591796875	0.01953125	1.0048828125	2.50381679389313	-0.22900763358778625	0.7480916030534351	144.6	120.6	-52.199999999999996
2017-08-17 18:12:52.379917	lat	lng	0.010498046875	0.016845703125	0.999267578125	2.900763358778626	-0.04580152671755725	0.6870229007633588	144.6	120.6	-52.199999999999996
2017-08-17 18:12:52.403941	lat	lng	0.007080078125	0.017578125	1.000732421875	2.4732824427480917	0.0	0.5801526717557252	144.6	120.6	-52.199999999999996
2017-08-17 18:12:52.426631	lat	lng	0.01123046875	0.0185546875	0.995849609375	2.6259541984732824	0.0	0.7022900763358778	144.6	120.6	-52.199999999999996
2017-08-17 18:12:52.468423	lat	lng	0.007568359375	0.0146484375	0.99658203125	2.6106870229007635	-0.12213740458015267	0.5954198473282443	144.6	120.6	-52.199999999999996
2017-08-17 18:12:52.488581	lat	lng	0.00732421875	0.01611328125	0.99853515625	2.6564885496183206	-0.12213740458015267	0.7022900763358778	144.6	120.6	-52.199999999999996
2017-08-17 18:12:52.507475	lat	lng	0.009033203125	0.013916015625	0.99658203125	2.595419847328244	0.030534351145038167	0.7938931297709924	144.6	120.6	-52.199999999999996
2017-08-17 18:12:52.526497	lat	lng	0.005126953125	0.015625	1.00439453125	2.549618320610687	0.13740458015267176	0.6564885496183206	144.6	120.6	-52.199999999999996
2017-08-17 18:12:52.545573	lat	lng	0.010009765625	0.017333984375	1.002685546875	2.687022900763359	0.061068702290076333	0.8244274809160306	144.6	120.6	-52.199999999999996
2017-08-17 18:12:52.564666	lat	lng	0.009033203125	0.013916015625	0.99462890625	2.6259541984732824	-0.15267175572519084	0.6106870229007634	144.6	120.6	-52.199999999999996
2017-08-17 18:12:52.582318	lat	lng	0.008544921875	0.01611328125	0.9990234375	2.854961832061069	-0.13740458015267176	0.6106870229007634	144.6	120.6	-52.199999999999996
2017-08-17 18:12:52.600838	lat	lng	0.010986328125	0.0126953125	0.99658203125	2.549618320610687	-0.10687022900763359	0.5648854961832062	144.6	120.6	-52.199999999999996
2017-08-17 18:12:52.618664	lat	lng	0.00634765625	0.01171875	1.0009765625	2.564885496183206	-0.10687022900763359	0.6259541984732825	144.6	120.6	-52.199999999999996
2017-08-17 18:12:52.637097	lat	lng	0.003662109375	0.0107421875	1.00537109375	2.6259541984732824	0.04580152671755725	0.7938931297709924	144.6	120.6	-52.199999999999996
2017-08-17 18:12:52.654768	lat	lng	0.01220703125	0.01123046875	1.009033203125	2.7022900763358777	-0.21374045801526717	0.6717557251908397	144.6	120.6	-52.199999999999996
2017-08-17 18:12:52.673533	lat	lng	0.0068359375	0.015869140625	0.999755859375	2.4885496183206106	-0.12213740458015267	0.6564885496183206	144.6	120.6	-52.199999999999996
2017-08-17 18:12:52.691193	lat	lng	0.008544921875	0.015380859375	1.003662109375	2.4885496183206106	3.877862595419847	0.8549618320610687	144.6	120.6	-52.199999999999996
2017-08-17 18:12:52.709644	lat	lng	0.010009765625	0.01318359375	1.001953125	2.4885496183206106	-0.061068702290076333	0.8091603053435115	144.6	120.6	-52.199999999999996
2017-08-17 18:12:52.727541	lat	lng	0.009765625	0.014892578125	1.00341796875	2.549618320610687	-0.04580152671755725	0.7938931297709924	144.6	120.6	-52.199999999999996
2017-08-17 18:12:52.746136	lat	lng	0.009521484375	0.01171875	1.00390625	2.564885496183206	0.061068702290076333	0.7938931297709924	144.6	120.6	-52.199999999999996
2017-08-17 18:12:52.763921	lat	lng	0.010009765625	0.01171875	1.00390625	2.6106870229007635	-0.2595419847328244	0.6106870229007634	144.6	120.6	-52.199999999999996
2017-08-17 18:12:52.782063	lat	lng	0.00634765625	0.014892578125	0.998779296875	2.7786259541984735	-0.04580152671755725	0.6717557251908397	144.6	120.6	-52.199999999999996
2017-08-17 18:12:52.800169	lat	lng	0.008544921875	0.01611328125	1.004638671875	2.732824427480916	-0.12213740458015267	0.8396946564885496	144.6	120.6	-52.199999999999996
2017-08-17 18:12:52.817778	lat	lng	0.014404296875	0.01611328125	1.003173828125	2.900763358778626	-0.015267175572519083	0.7480916030534351	144.6	120.6	-52.199999999999996
2017-08-17 18:12:52.836413	lat	lng	0.01220703125	0.01953125	0.9970703125	2.519083969465649	-0.061068702290076333	0.6870229007633588	144.6	120.6	-52.199999999999996
2017-08-17 18:12:52.854174	lat	lng	0.00732421875	0.013671875	1.001953125	2.717557251908397	-0.33587786259541985	0.7480916030534351	144.6	120.6	-52.199999999999996
2017-08-17 18:12:52.874048	lat	lng	0.009765625	0.013671875	0.998046875	2.717557251908397	-0.04580152671755725	0.6870229007633588	144.6	120.6	-52.199999999999996
2017-08-17 18:12:52.891459	lat	lng	0.012939453125	0.015869140625	1.006103515625	2.4885496183206106	-0.15267175572519084	0.7022900763358778	144.6	120.6	-52.199999999999996
2017-08-17 18:12:52.909062	lat	lng	0.00830078125	0.0166015625	1.004638671875	2.549618320610687	-0.015267175572519083	0.8091603053435115	144.6	120.6	-52.199999999999996
2017-08-17 18:12:52.927640	lat	lng	0.0078125	0.01513671875	0.99609375	2.5801526717557253	0.015267175572519083	0.6259541984732825	144.6	120.6	-52.199999999999996
2017-08-17 18:12:52.945835	lat	lng	0.01123046875	0.01318359375	1.00732421875	2.6259541984732824	-3.9083969465648853	0.6564885496183206	144.6	120.6	-52.199999999999996
2017-08-17 18:12:52.964338	lat	lng	0.010009765625	0.01611328125	0.9951171875	2.549618320610687	-0.1984732824427481	0.8244274809160306	144.6	120.6	-52.199999999999996
2017-08-17 18:12:52.982056	lat	lng	0.013427734375	0.01416015625	1.001708984375	2.549618320610687	0.04580152671755725	0.8244274809160306	144.6	120.6	-52.199999999999996
2017-08-17 18:12:52.999795	lat	lng	0.00537109375	0.01513671875	1.003173828125	2.732824427480916	-0.15267175572519084	0.7480916030534351	144.6	120.6	-52.199999999999996
2017-08-17 18:12:53.017603	lat	lng	0.008056640625	0.013427734375	1.00048828125	2.366412213740458	-0.07633587786259542	0.732824427480916	144.6	120.6	-52.199999999999996
2017-08-17 18:12:53.035379	lat	lng	0.006591796875	0.013427734375	1.00244140625	2.3969465648854964	-0.10687022900763359	0.5648854961832062	144.6	120.6	-52.199999999999996
2017-08-17 18:12:53.053909	lat	lng	0.007080078125	0.0126953125	1.0	2.6106870229007635	-0.15267175572519084	0.916030534351145	144.6	120.6	-52.199999999999996
2017-08-17 18:12:53.071550	lat	lng	0.009765625	0.011962890625	1.0009765625	2.6259541984732824	3.8931297709923665	0.7938931297709924	144.6	120.6	-52.199999999999996
2017-08-17 18:12:53.091374	lat	lng	0.009765625	0.01513671875	1.030029296875	2.687022900763359	-0.0916030534351145	0.7786259541984732	144.6	120.6	-52.199999999999996
2017-08-17 18:12:53.111412	lat	lng	0.010009765625	0.015869140625	1.00732421875	2.6717557251908395	-0.16793893129770993	0.6564885496183206	144.6	120.6	-52.199999999999996
2017-08-17 18:12:53.130408	lat	lng	0.009765625	0.011962890625	1.000244140625	2.7480916030534353	-0.13740458015267176	0.7786259541984732	144.6	120.6	-52.199999999999996
2017-08-17 18:12:53.148548	lat	lng	0.003662109375	0.01611328125	1.00390625	2.549618320610687	-0.0916030534351145	0.6412213740458015	144.6	120.6	-52.199999999999996
2017-08-17 18:12:53.165665	lat	lng	0.009521484375	0.01123046875	1.010986328125	2.381679389312977	0.04580152671755725	0.7175572519083969	144.6	120.6	-52.199999999999996
2017-08-17 18:12:53.182968	lat	lng	0.0087890625	0.015380859375	1.007080078125	2.6106870229007635	-0.15267175572519084	0.8549618320610687	144.6	120.6	-52.199999999999996
2017-08-17 18:12:53.205359	lat	lng	0.012451171875	0.015869140625	1.0048828125	2.6564885496183206	-0.2900763358778626	0.9007633587786259	144.6	120.6	-52.199999999999996
2017-08-17 18:12:53.226754	lat	lng	0.00927734375	0.01416015625	0.972900390625	2.6564885496183206	0.0916030534351145	0.7022900763358778	144.6	120.6	-52.199999999999996
2017-08-17 18:12:53.248564	lat	lng	0.0107421875	0.012451171875	1.028564453125	2.8091603053435112	-0.13740458015267176	0.8549618320610687	144.6	120.6	-52.199999999999996
2017-08-17 18:12:53.269574	lat	lng	0.006103515625	0.013671875	0.999267578125	2.687022900763359	-0.12213740458015267	0.6106870229007634	144.6	120.6	-52.199999999999996
2017-08-17 18:12:53.291760	lat	lng	0.009521484375	0.016357421875	0.998779296875	2.5343511450381677	-0.32061068702290074	0.5343511450381679	144.6	120.6	-52.199999999999996
2017-08-17 18:12:53.313526	lat	lng	0.008544921875	0.01220703125	1.001220703125	2.3053435114503817	-0.22900763358778625	0.5343511450381679	144.6	120.6	-52.199999999999996
2017-08-17 18:12:53.335234	lat	lng	0.00830078125	0.015625	1.005615234375	2.6412213740458017	0.2595419847328244	0.7633587786259542	144.6	120.6	-52.199999999999996
2017-08-17 18:12:53.357405	lat	lng	0.009033203125	0.014404296875	1.002197265625	2.4885496183206106	-0.2595419847328244	0.8244274809160306	144.6	120.6	-52.199999999999996
2017-08-17 18:12:53.379206	lat	lng	0.006103515625	0.0146484375	0.999267578125	2.6259541984732824	-0.07633587786259542	0.5190839694656488	144.6	120.6	-52.199999999999996
2017-08-17 18:12:53.407319	lat	lng	0.00927734375	0.014892578125	0.994873046875	2.6717557251908395	0.16793893129770993	0.6717557251908397	144.6	120.6	-52.199999999999996
2017-08-17 18:12:53.429385	lat	lng	0.009765625	0.01513671875	0.994140625	2.7786259541984735	-0.12213740458015267	0.8244274809160306	144.6	120.6	-52.199999999999996
2017-08-17 18:12:53.454258	lat	lng	0.008056640625	0.013916015625	0.999267578125	2.687022900763359	0.0916030534351145	0.7938931297709924	144.6	120.6	-52.199999999999996
2017-08-17 18:12:53.478368	lat	lng	0.013427734375	0.013671875	0.9970703125	2.6412213740458017	-0.030534351145038167	0.6412213740458015	144.6	120.6	-52.199999999999996
2017-08-17 18:12:53.496641	lat	lng	0.0068359375	0.01611328125	1.0048828125	2.519083969465649	3.877862595419847	0.8396946564885496	144.6	120.6	-52.199999999999996
2017-08-17 18:12:53.514265	lat	lng	0.00732421875	0.011962890625	1.003662109375	2.687022900763359	-0.015267175572519083	0.7175572519083969	144.6	120.6	-52.199999999999996
2017-08-17 18:12:53.533198	lat	lng	0.009521484375	0.017822265625	1.0078125	2.6106870229007635	-0.061068702290076333	0.4122137404580153	144.6	120.6	-52.199999999999996
2017-08-17 18:12:53.550743	lat	lng	0.007080078125	0.015625	1.0048828125	2.687022900763359	-0.21374045801526717	0.6564885496183206	144.6	120.6	-52.199999999999996
2017-08-17 18:12:53.568206	lat	lng	0.01123046875	0.014892578125	1.0029296875	2.7786259541984735	0.030534351145038167	0.732824427480916	144.6	120.6	-52.199999999999996
2017-08-17 18:12:53.585650	lat	lng	0.0107421875	0.010498046875	1.003173828125	2.6106870229007635	-3.8931297709923665	0.732824427480916	144.6	120.6	-52.199999999999996
2017-08-17 18:12:53.602290	lat	lng	0.00927734375	0.012451171875	1.006591796875	2.5801526717557253	-0.16793893129770993	0.6717557251908397	144.6	120.6	-52.199999999999996
2017-08-17 18:12:53.619086	lat	lng	0.009033203125	0.01416015625	1.0078125	2.7022900763358777	-0.3053435114503817	0.6870229007633588	144.6	120.6	-52.199999999999996
2017-08-17 18:12:53.636376	lat	lng	0.011474609375	0.01611328125	1.00634765625	2.4885496183206106	-0.07633587786259542	0.7786259541984732	144.6	120.6	-52.199999999999996
2017-08-17 18:12:53.653270	lat	lng	0.010009765625	0.015625	1.001708984375	2.717557251908397	-0.22900763358778625	0.732824427480916	144.6	120.6	-52.199999999999996
2017-08-17 18:12:53.669949	lat	lng	0.007568359375	0.01513671875	1.00830078125	2.564885496183206	0.10687022900763359	0.8244274809160306	144.6	120.6	-52.199999999999996
2017-08-17 18:12:53.686752	lat	lng	0.0087890625	0.011962890625	1.00830078125	2.2900763358778624	-0.1984732824427481	0.6564885496183206	144.6	120.6	-52.199999999999996
2017-08-17 18:12:53.703614	lat	lng	0.007568359375	0.011962890625	0.995849609375	2.6412213740458017	-0.0916030534351145	0.7786259541984732	144.6	120.6	-52.199999999999996
2017-08-17 18:12:53.720716	lat	lng	0.00732421875	0.012939453125	1.0029296875	2.7786259541984735	-0.15267175572519084	0.7022900763358778	144.6	120.6	-52.199999999999996
2017-08-17 18:12:53.739003	lat	lng	0.01025390625	0.01513671875	0.999755859375	2.549618320610687	-0.07633587786259542	0.6412213740458015	144.6	120.6	-52.199999999999996
2017-08-17 18:12:53.756264	lat	lng	0.010986328125	0.02001953125	1.001953125	2.6412213740458017	-0.21374045801526717	0.6564885496183206	144.6	120.6	-52.199999999999996
2017-08-17 18:12:53.773260	lat	lng	0.007568359375	0.0078125	1.0009765625	2.7786259541984735	-0.04580152671755725	0.6259541984732825	144.6	120.6	-52.199999999999996
2017-08-17 18:12:53.790545	lat	lng	0.009033203125	0.01513671875	1.00390625	2.6259541984732824	-0.16793893129770993	0.4732824427480916	144.6	120.6	-52.199999999999996
2017-08-17 18:12:53.807543	lat	lng	0.009521484375	0.013671875	1.0	2.519083969465649	-0.183206106870229	0.9465648854961832	144.6	120.6	-52.199999999999996
2017-08-17 18:12:53.824561	lat	lng	0.0146484375	0.01220703125	1.005615234375	2.519083969465649	-0.1984732824427481	0.916030534351145	144.6	120.6	-52.199999999999996
2017-08-17 18:12:53.841879	lat	lng	0.01171875	0.017333984375	0.997314453125	2.6717557251908395	-0.16793893129770993	0.6412213740458015	144.6	120.6	-52.199999999999996
2017-08-17 18:12:53.858926	lat	lng	0.0107421875	0.013916015625	0.99609375	2.50381679389313	-0.015267175572519083	0.732824427480916	144.6	120.6	-52.199999999999996
2017-08-17 18:12:53.876044	lat	lng	0.006103515625	0.01611328125	1.00537109375	2.763358778625954	0.0	0.8091603053435115	144.6	120.6	-52.199999999999996
2017-08-17 18:12:53.893050	lat	lng	0.0087890625	0.014892578125	1.003662109375	2.6259541984732824	-0.0916030534351145	0.7633587786259542	144.6	120.6	-52.199999999999996
2017-08-17 18:12:53.909959	lat	lng	0.007568359375	0.012451171875	1.007080078125	2.595419847328244	0.10687022900763359	0.5954198473282443	144.6	120.6	-52.199999999999996
2017-08-17 18:12:53.926976	lat	lng	0.008544921875	0.017578125	1.005126953125	2.564885496183206	0.030534351145038167	0.7480916030534351	144.6	120.6	-52.199999999999996
2017-08-17 18:12:53.944453	lat	lng	0.010009765625	0.012939453125	1.0048828125	2.549618320610687	-0.10687022900763359	0.8549618320610687	144.6	120.6	-52.199999999999996
2017-08-17 18:12:53.961444	lat	lng	0.00830078125	0.015625	1.00390625	2.4580152671755724	0.015267175572519083	0.732824427480916	144.6	120.6	-52.199999999999996
2017-08-17 18:12:53.978376	lat	lng	0.010498046875	0.014892578125	0.997314453125	2.5801526717557253	-0.04580152671755725	0.3969465648854962	144.6	120.6	-52.199999999999996
2017-08-17 18:12:53.995539	lat	lng	0.009033203125	0.0107421875	1.001220703125	2.564885496183206	0.030534351145038167	0.9770992366412213	144.6	120.6	-52.199999999999996
2017-08-17 18:12:54.012538	lat	lng	0.007568359375	0.012451171875	0.99951171875	2.6412213740458017	-0.16793893129770993	0.9312977099236641	144.6	120.6	-52.199999999999996
2017-08-17 18:12:54.029576	lat	lng	0.01123046875	0.010009765625	0.996826171875	2.595419847328244	0.030534351145038167	0.9312977099236641	144.6	120.6	-52.199999999999996
2017-08-17 18:12:54.046902	lat	lng	0.007080078125	0.01318359375	1.001953125	2.564885496183206	-0.030534351145038167	0.33587786259541985	144.6	120.6	-52.199999999999996
2017-08-17 18:12:54.064451	lat	lng	0.0087890625	0.01513671875	0.9951171875	2.519083969465649	-0.2900763358778626	0.7938931297709924	144.6	120.6	-52.199999999999996
2017-08-17 18:12:54.086016	lat	lng	0.005615234375	0.013916015625	0.998046875	2.4732824427480917	0.015267175572519083	0.8702290076335878	144.6	120.6	-52.199999999999996
2017-08-17 18:12:54.103072	lat	lng	0.011474609375	0.018310546875	0.997314453125	2.763358778625954	0.3053435114503817	0.6412213740458015	144.6	120.6	-52.199999999999996
2017-08-17 18:12:54.119735	lat	lng	0.008544921875	0.015869140625	0.998291015625	2.549618320610687	-0.0916030534351145	0.7633587786259542	144.6	120.6	-52.199999999999996
2017-08-17 18:12:54.137127	lat	lng	0.009521484375	0.014404296875	1.001708984375	2.5343511450381677	-0.1984732824427481	0.7633587786259542	144.6	120.6	-52.199999999999996
2017-08-17 18:12:54.154896	lat	lng	0.007568359375	0.016845703125	0.99951171875	2.7480916030534353	0.5190839694656488	0.9923664122137404	144.6	120.6	-52.199999999999996
2017-08-17 18:12:54.172025	lat	lng	0.009765625	0.014892578125	0.998291015625	2.4732824427480917	-0.3511450381679389	0.7633587786259542	144.6	120.6	-52.199999999999996
2017-08-17 18:12:54.189948	lat	lng	0.0087890625	0.0107421875	0.97265625	2.6412213740458017	-0.13740458015267176	0.8244274809160306	144.6	120.6	-52.199999999999996
2017-08-17 18:12:54.210975	lat	lng	0.01318359375	0.01708984375	0.994140625	2.4427480916030535	0.015267175572519083	0.8702290076335878	144.6	120.6	-52.199999999999996
2017-08-17 18:12:54.235834	lat	lng	0.005859375	0.014404296875	1.000244140625	2.931297709923664	-3.8473282442748094	0.9923664122137404	144.6	120.6	-52.199999999999996
2017-08-17 18:12:54.257679	lat	lng	0.01220703125	0.016845703125	0.9921875	2.50381679389313	-0.183206106870229	1.0076335877862594	144.6	120.6	-52.199999999999996
2017-08-17 18:12:54.281050	lat	lng	0.009765625	0.014404296875	0.996826171875	2.717557251908397	-0.21374045801526717	0.7480916030534351	144.6	120.6	-52.199999999999996
2017-08-17 18:12:54.302845	lat	lng	0.01220703125	0.018310546875	1.003173828125	2.7786259541984735	-0.22900763358778625	0.8702290076335878	144.6	120.6	-52.199999999999996
2017-08-17 18:12:54.326321	lat	lng	0.01171875	0.014892578125	0.99853515625	2.50381679389313	-0.366412213740458	0.7022900763358778	144.6	120.6	-52.199999999999996
2017-08-17 18:12:54.354314	lat	lng	0.010009765625	0.015380859375	0.99853515625	2.5343511450381677	0.061068702290076333	0.5954198473282443	144.6	120.6	-52.199999999999996
2017-08-17 18:12:54.375689	lat	lng	0.0107421875	0.011962890625	1.00341796875	2.564885496183206	-0.13740458015267176	0.7633587786259542	144.6	120.6	-52.199999999999996
2017-08-17 18:12:54.397270	lat	lng	0.0078125	0.0166015625	0.998779296875	2.4580152671755724	0.04580152671755725	0.7022900763358778	144.6	120.6	-52.199999999999996
2017-08-17 18:12:54.419302	lat	lng	0.011474609375	0.0126953125	0.999267578125	2.6106870229007635	-0.21374045801526717	0.9770992366412213	144.6	120.6	-52.199999999999996
2017-08-17 18:12:54.443080	lat	lng	0.01025390625	0.01611328125	0.996826171875	2.8244274809160306	-0.2595419847328244	1.0534351145038168	144.6	120.6	-52.199999999999996
2017-08-17 18:12:54.477281	lat	lng	0.010009765625	0.013916015625	1.004638671875	2.6717557251908395	-0.04580152671755725	0.8854961832061069	144.6	120.6	-52.199999999999996
2017-08-17 18:12:54.499999	lat	lng	0.010498046875	0.014404296875	1.004150390625	2.6412213740458017	0.0	0.6106870229007634	144.6	120.6	-52.199999999999996
2017-08-17 18:12:54.521866	lat	lng	0.00830078125	0.017333984375	0.998046875	2.4427480916030535	0.0	0.8396946564885496	144.6	120.6	-52.199999999999996
2017-08-17 18:12:54.544661	lat	lng	0.013427734375	0.014404296875	1.029541015625	2.564885496183206	-0.16793893129770993	0.8244274809160306	144.6	120.6	-52.199999999999996
2017-08-17 18:12:54.567121	lat	lng	0.010009765625	0.013671875	1.0048828125	2.5801526717557253	0.061068702290076333	0.6870229007633588	144.6	120.6	-52.199999999999996
2017-08-17 18:12:54.589736	lat	lng	0.00634765625	0.01513671875	1.00390625	2.6717557251908395	-0.07633587786259542	0.6870229007633588	144.6	120.6	-52.199999999999996
2017-08-17 18:12:54.614321	lat	lng	0.00732421875	0.010986328125	0.99609375	2.6564885496183206	0.1984732824427481	0.8396946564885496	144.6	120.6	-52.199999999999996
2017-08-17 18:12:54.637902	lat	lng	0.014404296875	0.016357421875	1.0009765625	2.6259541984732824	-0.2595419847328244	0.7022900763358778	144.6	120.6	-52.199999999999996
2017-08-17 18:12:54.660223	lat	lng	0.01220703125	0.013916015625	1.003662109375	2.3969465648854964	-3.8473282442748094	0.7633587786259542	144.6	120.6	-52.199999999999996
2017-08-17 18:12:54.682355	lat	lng	0.010009765625	0.014404296875	0.99462890625	2.6412213740458017	-3.9083969465648853	0.6870229007633588	144.6	120.6	-52.199999999999996
2017-08-17 18:12:54.705028	lat	lng	0.0087890625	0.017822265625	0.998046875	2.885496183206107	-0.21374045801526717	0.8396946564885496	144.6	120.6	-52.199999999999996
2017-08-17 18:12:54.727338	lat	lng	0.0068359375	0.01416015625	1.0	2.5801526717557253	-0.2595419847328244	0.8091603053435115	144.6	120.6	-52.199999999999996
2017-08-17 18:12:54.749730	lat	lng	0.006103515625	0.01513671875	1.000244140625	2.8091603053435112	-0.16793893129770993	0.7786259541984732	144.6	120.6	-52.199999999999996
2017-08-17 18:12:54.771939	lat	lng	0.00830078125	0.017578125	1.02978515625	2.6259541984732824	-0.10687022900763359	0.8091603053435115	144.6	120.6	-52.199999999999996
2017-08-17 18:12:54.794219	lat	lng	0.0146484375	0.013427734375	0.997802734375	2.6412213740458017	-0.2748091603053435	0.8549618320610687	144.6	120.6	-52.199999999999996
2017-08-17 18:12:54.816503	lat	lng	0.0126953125	0.014404296875	1.00634765625	2.6717557251908395	0.061068702290076333	0.7633587786259542	144.6	120.6	-52.199999999999996
2017-08-17 18:12:54.838728	lat	lng	0.01171875	0.011474609375	1.000732421875	2.7938931297709924	0.015267175572519083	0.8091603053435115	144.6	120.6	-52.199999999999996
2017-08-17 18:12:54.861282	lat	lng	0.005859375	0.000732421875	0.9990234375	2.6106870229007635	0.061068702290076333	0.4732824427480916	144.6	120.6	-52.199999999999996
2017-08-17 18:12:54.883437	lat	lng	0.011474609375	0.013916015625	0.993896484375	2.7022900763358777	-3.8931297709923665	0.6412213740458015	144.6	120.6	-52.199999999999996
2017-08-17 18:12:54.905700	lat	lng	0.015625	0.026123046875	1.0048828125	2.732824427480916	-0.2748091603053435	0.7633587786259542	144.6	120.6	-52.199999999999996
2017-08-17 18:12:55.232988	lat	lng	0.0087890625	0.01318359375	0.98974609375	2.5343511450381677	-0.183206106870229	0.9770992366412213	144.6	120.6	-52.199999999999996
2017-08-17 18:12:55.257679	lat	lng	0.01220703125	0.01416015625	1.00634765625	2.7786259541984735	3.8473282442748094	0.6870229007633588	144.6	120.6	-52.199999999999996
2017-08-17 18:12:55.280120	lat	lng	0.0146484375	0.01318359375	0.99609375	2.5343511450381677	0.13740458015267176	0.8244274809160306	144.6	120.6	-52.199999999999996
2017-08-17 18:12:55.302510	lat	lng	0.00830078125	0.01220703125	0.995361328125	2.8091603053435112	-0.061068702290076333	0.6870229007633588	144.6	120.6	-52.199999999999996
2017-08-17 18:12:55.327842	lat	lng	0.01025390625	0.0126953125	0.99658203125	2.6106870229007635	-0.061068702290076333	0.8091603053435115	144.6	120.6	-52.199999999999996
2017-08-17 18:12:55.356831	lat	lng	0.009521484375	0.01220703125	0.998779296875	2.427480916030534	0.07633587786259542	0.8854961832061069	144.6	120.6	-52.199999999999996
2017-08-17 18:12:55.379188	lat	lng	0.01025390625	0.01318359375	1.001708984375	2.763358778625954	-0.15267175572519084	0.7175572519083969	144.6	120.6	-52.199999999999996
2017-08-17 18:12:55.402772	lat	lng	0.008544921875	0.0146484375	1.0107421875	2.549618320610687	-0.1984732824427481	0.7175572519083969	144.6	120.6	-52.199999999999996
2017-08-17 18:12:55.425974	lat	lng	0.010498046875	0.012939453125	0.998779296875	2.6259541984732824	-0.015267175572519083	0.5954198473282443	144.6	120.6	-52.199999999999996
2017-08-17 18:12:55.451367	lat	lng	0.011474609375	0.010498046875	1.005126953125	2.8396946564885495	-0.1984732824427481	0.732824427480916	144.6	120.6	-52.199999999999996
2017-08-17 18:12:55.480448	lat	lng	0.009765625	0.01123046875	1.003173828125	2.5801526717557253	-0.0916030534351145	0.9007633587786259	144.6	120.6	-52.199999999999996
2017-08-17 18:12:55.504067	lat	lng	0.01220703125	0.009765625	0.9921875	2.519083969465649	3.8931297709923665	0.8396946564885496	144.6	120.6	-52.199999999999996
2017-08-17 18:12:55.533505	lat	lng	0.01123046875	0.013916015625	1.030517578125	2.5801526717557253	-0.15267175572519084	0.6870229007633588	144.6	120.6	-52.199999999999996
2017-08-17 18:12:55.558220	lat	lng	0.01025390625	0.01416015625	0.99951171875	2.5343511450381677	3.877862595419847	0.8854961832061069	144.6	120.6	-52.199999999999996
2017-08-17 18:12:55.583936	lat	lng	0.012451171875	0.014892578125	0.99560546875	2.763358778625954	-0.2900763358778626	0.8244274809160306	144.6	120.6	-52.199999999999996
2017-08-17 18:12:55.607684	lat	lng	0.010009765625	0.0166015625	1.00341796875	2.6564885496183206	-0.183206106870229	0.6412213740458015	144.6	120.6	-52.199999999999996
2017-08-17 18:12:55.630249	lat	lng	0.01220703125	0.013671875	1.00537109375	2.687022900763359	-0.10687022900763359	0.8091603053435115	144.6	120.6	-52.199999999999996
2017-08-17 18:12:55.651604	lat	lng	0.011474609375	0.015869140625	0.99853515625	2.50381679389313	-0.183206106870229	0.6412213740458015	144.6	120.6	-52.199999999999996
2017-08-17 18:12:55.673100	lat	lng	0.013916015625	0.0126953125	0.998046875	2.8091603053435112	3.877862595419847	0.7175572519083969	144.6	120.6	-52.199999999999996
2017-08-17 18:12:55.694877	lat	lng	0.0078125	0.011474609375	1.0009765625	2.519083969465649	0.15267175572519084	0.8549618320610687	144.6	120.6	-52.199999999999996
2017-08-17 18:12:55.717372	lat	lng	0.0087890625	0.011962890625	1.003173828125	2.351145038167939	0.0916030534351145	0.33587786259541985	144.6	120.6	-52.199999999999996
2017-08-17 18:12:55.739023	lat	lng	0.007568359375	0.014404296875	1.00830078125	2.7022900763358777	-0.030534351145038167	0.8091603053435115	144.6	120.6	-52.199999999999996
2017-08-17 18:12:55.761804	lat	lng	0.01123046875	0.01318359375	0.969970703125	2.763358778625954	3.877862595419847	0.5954198473282443	144.6	120.6	-52.199999999999996
2017-08-17 18:12:55.783473	lat	lng	0.013671875	0.01611328125	1.004150390625	2.4122137404580153	0.13740458015267176	0.7786259541984732	144.6	120.6	-52.199999999999996
2017-08-17 18:12:55.805154	lat	lng	0.0087890625	0.013671875	0.992919921875	2.4885496183206106	-0.07633587786259542	0.6412213740458015	144.6	120.6	-52.199999999999996
