Time	Position_lat	Position_lng	Accelerometer_x	Accelerometer_y	Accelerometer_z	Gyroscope_x	Gyroscope_y	Gyroscope_z	Magnetometer_x	Magnetometer_y	Magnetometer_z
2017-08-17 17:10:20.583026	lat	lng	-0.008544921875	0.0380859375	0.999755859375	2.7480916030534353	3.8931297709923665	0.732824427480916	0.0	0.0	0.0
2017-08-17 17:10:21.010234	lat	lng	-0.01025390625	0.036865234375	0.99951171875	2.7786259541984735	0.061068702290076333	0.6564885496183206	0.0	0.0	0.0
2017-08-17 17:10:21.034373	lat	lng	-0.0087890625	0.036376953125	0.99755859375	2.4885496183206106	0.15267175572519084	0.5801526717557252	0.0	0.0	0.0
2017-08-17 17:10:21.059767	lat	lng	-0.012939453125	0.034423828125	0.99267578125	2.549618320610687	0.1984732824427481	0.7175572519083969	0.0	0.0	0.0
2017-08-17 17:10:21.078981	lat	lng	-0.00732421875	0.037353515625	1.000732421875	2.732824427480916	-0.2748091603053435	0.7786259541984732	0.0	0.0	0.0
2017-08-17 17:10:21.097126	lat	lng	-0.00732421875	0.037841796875	0.99853515625	2.900763358778626	0.15267175572519084	0.9312977099236641	0.0	0.0	0.0
2017-08-17 17:10:21.117154	lat	lng	-0.01220703125	0.038818359375	1.004638671875	2.6564885496183206	-0.061068702290076333	0.6412213740458015	0.0	0.0	0.0
2017-08-17 17:10:21.134777	lat	lng	-0.01220703125	0.03857421875	1.00048828125	2.732824427480916	0.0916030534351145	0.9007633587786259	0.0	0.0	0.0
2017-08-17 17:10:21.152146	lat	lng	-0.011474609375	0.035400390625	1.001708984375	2.6259541984732824	-0.15267175572519084	0.9618320610687023	0.0	0.0	0.0
2017-08-17 17:10:21.168589	lat	lng	-0.0078125	0.032470703125	0.99951171875	2.6106870229007635	0.2748091603053435	0.7786259541984732	0.0	0.0	0.0
2017-08-17 17:10:21.187113	lat	lng	-0.00732421875	0.0361328125	0.994140625	2.6106870229007635	-0.16793893129770993	0.6717557251908397	0.0	0.0	0.0
2017-08-17 17:10:21.203486	lat	lng	-0.010498046875	0.038330078125	1.00244140625	2.6412213740458017	-0.10687022900763359	0.7938931297709924	0.0	0.0	0.0
2017-08-17 17:10:21.220864	lat	lng	-0.009521484375	0.0400390625	0.99609375	2.6106870229007635	-0.061068702290076333	0.5648854961832062	0.0	0.0	0.0
2017-08-17 17:10:21.237219	lat	lng	-0.009033203125	0.037353515625	1.00146484375	2.4122137404580153	-0.42748091603053434	0.6259541984732825	0.0	0.0	0.0
2017-08-17 17:10:21.260855	lat	lng	-0.00732421875	0.037353515625	0.99609375	2.351145038167939	-0.1984732824427481	0.7938931297709924	0.0	0.0	0.0
2017-08-17 17:10:21.278815	lat	lng	-0.009033203125	0.0390625	0.997802734375	2.4885496183206106	-0.12213740458015267	0.916030534351145	0.0	0.0	0.0
2017-08-17 17:10:21.296813	lat	lng	-0.009521484375	0.03759765625	1.005126953125	2.366412213740458	-0.4122137404580153	0.916030534351145	0.0	0.0	0.0
2017-08-17 17:10:21.315011	lat	lng	-0.01123046875	0.035400390625	1.000244140625	2.549618320610687	-0.15267175572519084	0.8244274809160306	0.0	0.0	0.0
2017-08-17 17:10:21.332709	lat	lng	-0.015380859375	0.040283203125	0.99853515625	2.4885496183206106	0.0	0.7633587786259542	0.0	0.0	0.0
2017-08-17 17:10:21.353915	lat	lng	-0.00927734375	0.0380859375	1.007568359375	2.549618320610687	-0.015267175572519083	0.6717557251908397	0.0	0.0	0.0
2017-08-17 17:10:21.371695	lat	lng	-0.011474609375	0.037353515625	1.00244140625	2.50381679389313	-0.10687022900763359	0.6564885496183206	0.0	0.0	0.0
2017-08-17 17:10:21.389524	lat	lng	-0.009765625	0.0361328125	1.00390625	2.687022900763359	-0.183206106870229	0.7786259541984732	0.0	0.0	0.0
2017-08-17 17:10:21.407998	lat	lng	-0.009521484375	0.034423828125	1.001708984375	2.732824427480916	-0.07633587786259542	0.5954198473282443	0.0	0.0	0.0
2017-08-17 17:10:21.426075	lat	lng	-0.007568359375	0.04052734375	1.003662109375	2.6717557251908395	-0.030534351145038167	0.6870229007633588	0.0	0.0	0.0
2017-08-17 17:10:21.445107	lat	lng	-0.012939453125	0.03564453125	1.001953125	2.564885496183206	-0.1984732824427481	0.7938931297709924	0.0	0.0	0.0
2017-08-17 17:10:21.463906	lat	lng	-0.00732421875	0.035400390625	0.998291015625	2.50381679389313	0.061068702290076333	0.6259541984732825	0.0	0.0	0.0
2017-08-17 17:10:21.480392	lat	lng	-0.01025390625	0.039306640625	1.010009765625	2.6259541984732824	-0.13740458015267176	0.7022900763358778	0.0	0.0	0.0
2017-08-17 17:10:21.497185	lat	lng	-0.010009765625	0.0390625	0.996826171875	2.6564885496183206	-0.21374045801526717	0.6870229007633588	0.0	0.0	0.0
2017-08-17 17:10:21.513693	lat	lng	-0.00927734375	0.03662109375	1.001708984375	2.732824427480916	-0.2900763358778626	0.7480916030534351	0.0	0.0	0.0
2017-08-17 17:10:21.530459	lat	lng	-0.007080078125	0.037841796875	1.00146484375	2.5343511450381677	-0.04580152671755725	0.6717557251908397	0.0	0.0	0.0
2017-08-17 17:10:21.546970	lat	lng	-0.008056640625	0.041015625	1.004150390625	2.687022900763359	0.3053435114503817	0.7175572519083969	0.0	0.0	0.0
2017-08-17 17:10:21.564235	lat	lng	-0.00830078125	0.041748046875	1.00341796875	2.595419847328244	0.0	0.5038167938931297	0.0	0.0	0.0
2017-08-17 17:10:21.580666	lat	lng	-0.009765625	0.033935546875	1.003662109375	2.7786259541984735	-0.16793893129770993	0.7633587786259542	0.0	0.0	0.0
2017-08-17 17:10:21.597311	lat	lng	-0.010009765625	0.036376953125	1.00244140625	2.4732824427480917	-0.12213740458015267	0.549618320610687	0.0	0.0	0.0
2017-08-17 17:10:21.614060	lat	lng	-0.00634765625	0.035400390625	1.00048828125	2.6259541984732824	-0.16793893129770993	0.7480916030534351	0.0	0.0	0.0
2017-08-17 17:10:21.636346	lat	lng	-0.00927734375	0.04248046875	1.003662109375	2.687022900763359	0.07633587786259542	0.6564885496183206	0.0	0.0	0.0
2017-08-17 17:10:21.652864	lat	lng	-0.00537109375	0.03759765625	1.00439453125	2.595419847328244	-0.030534351145038167	0.8702290076335878	0.0	0.0	0.0
2017-08-17 17:10:21.670372	lat	lng	-0.0068359375	0.036376953125	1.001708984375	2.3206106870229006	0.2900763358778626	0.8244274809160306	0.0	0.0	0.0
2017-08-17 17:10:21.686780	lat	lng	-0.007080078125	0.036376953125	1.00830078125	2.4885496183206106	0.1984732824427481	0.7480916030534351	0.0	0.0	0.0
2017-08-17 17:10:21.703400	lat	lng	-0.01220703125	0.036865234375	1.0048828125	2.6259541984732824	-0.0916030534351145	0.549618320610687	0.0	0.0	0.0
2017-08-17 17:10:21.721273	lat	lng	-0.0107421875	0.038818359375	0.9990234375	2.5343511450381677	-0.10687022900763359	0.7633587786259542	0.0	0.0	0.0
2017-08-17 17:10:21.738551	lat	lng	-0.008544921875	0.0361328125	0.9970703125	2.7022900763358777	-0.22900763358778625	0.7633587786259542	0.0	0.0	0.0
2017-08-17 17:10:21.756403	lat	lng	-0.01025390625	0.033447265625	1.005615234375	2.763358778625954	-0.21374045801526717	0.8396946564885496	0.0	0.0	0.0
2017-08-17 17:10:21.775185	lat	lng	-0.01171875	0.036865234375	0.999755859375	2.50381679389313	-0.04580152671755725	0.7786259541984732	0.0	0.0	0.0
2017-08-17 17:10:21.797082	lat	lng	-0.00830078125	0.0400390625	0.99609375	2.564885496183206	-0.10687022900763359	0.5190839694656488	0.0	0.0	0.0
2017-08-17 17:10:21.818864	lat	lng	-0.011962890625	0.038330078125	0.995361328125	2.8244274809160306	0.07633587786259542	0.6717557251908397	0.0	0.0	0.0
2017-08-17 17:10:21.840825	lat	lng	-0.010009765625	0.038330078125	1.0009765625	2.732824427480916	0.030534351145038167	0.6870229007633588	0.0	0.0	0.0
2017-08-17 17:10:21.864857	lat	lng	-0.011962890625	0.0390625	0.99951171875	2.427480916030534	-0.22900763358778625	0.732824427480916	0.0	0.0	0.0
2017-08-17 17:10:21.883278	lat	lng	-0.00732421875	0.035400390625	0.997314453125	2.4885496183206106	-0.015267175572519083	0.7633587786259542	0.0	0.0	0.0
2017-08-17 17:10:21.900507	lat	lng	-0.01025390625	0.03515625	0.997314453125	2.2900763358778624	0.015267175572519083	0.8702290076335878	0.0	0.0	0.0
2017-08-17 17:10:21.917093	lat	lng	-0.0087890625	0.036865234375	1.004150390625	2.366412213740458	-0.015267175572519083	0.8854961832061069	0.0	0.0	0.0
2017-08-17 17:10:21.934052	lat	lng	-0.012939453125	0.03564453125	0.998291015625	2.595419847328244	-0.10687022900763359	0.6870229007633588	0.0	0.0	0.0
2017-08-17 17:10:21.950766	lat	lng	-0.008056640625	0.033203125	0.99560546875	2.6259541984732824	-0.015267175572519083	0.7633587786259542	0.0	0.0	0.0
2017-08-17 17:10:21.971371	lat	lng	-0.010498046875	0.035888671875	1.00048828125	2.519083969465649	-0.32061068702290074	0.7175572519083969	0.0	0.0	0.0
2017-08-17 17:10:21.990781	lat	lng	-0.012939453125	0.03466796875	1.001953125	2.763358778625954	-0.2595419847328244	0.6259541984732825	0.0	0.0	0.0
2017-08-17 17:10:22.012560	lat	lng	-0.009765625	0.037109375	0.994873046875	2.5801526717557253	-0.030534351145038167	0.732824427480916	0.0	0.0	0.0
2017-08-17 17:10:22.030061	lat	lng	-0.00830078125	0.041015625	1.0009765625	2.366412213740458	0.015267175572519083	0.7175572519083969	0.0	0.0	0.0
2017-08-17 17:10:22.047570	lat	lng	-0.012451171875	0.037841796875	1.004638671875	2.5343511450381677	-0.061068702290076333	0.6870229007633588	0.0	0.0	0.0
2017-08-17 17:10:22.065324	lat	lng	-0.010986328125	0.03662109375	0.99853515625	2.6106870229007635	-0.2748091603053435	0.6106870229007634	0.0	0.0	0.0
2017-08-17 17:10:22.082887	lat	lng	-0.0048828125	0.038818359375	0.99755859375	2.7022900763358777	0.04580152671755725	0.8854961832061069	0.0	0.0	0.0
2017-08-17 17:10:22.100161	lat	lng	-0.007568359375	0.0361328125	1.0009765625	2.6717557251908395	0.07633587786259542	0.8549618320610687	0.0	0.0	0.0
2017-08-17 17:10:22.118122	lat	lng	-0.00830078125	0.03662109375	0.997314453125	2.7938931297709924	-0.04580152671755725	1.0534351145038168	0.0	0.0	0.0
2017-08-17 17:10:22.135296	lat	lng	-0.0078125	0.03857421875	1.001953125	2.519083969465649	-0.12213740458015267	0.8396946564885496	0.0	0.0	0.0
2017-08-17 17:10:22.152880	lat	lng	-0.0068359375	0.037841796875	1.00341796875	2.2900763358778624	0.10687022900763359	0.6106870229007634	0.0	0.0	0.0
2017-08-17 17:10:22.169908	lat	lng	-0.015625	0.037109375	0.9990234375	2.8091603053435112	-0.2900763358778626	0.7786259541984732	0.0	0.0	0.0
2017-08-17 17:10:22.187931	lat	lng	-0.013427734375	0.039306640625	0.99560546875	2.732824427480916	-0.21374045801526717	0.7022900763358778	0.0	0.0	0.0
2017-08-17 17:10:22.206127	lat	lng	-0.010498046875	0.036376953125	1.004150390625	2.6106870229007635	-0.12213740458015267	0.6717557251908397	0.0	0.0	0.0
2017-08-17 17:10:22.225139	lat	lng	-0.0078125	0.033203125	1.003173828125	2.4580152671755724	-0.13740458015267176	0.7022900763358778	0.0	0.0	0.0
2017-08-17 17:10:22.241936	lat	lng	-0.007080078125	0.036376953125	1.00341796875	2.6259541984732824	0.030534351145038167	0.8091603053435115	0.0	0.0	0.0
2017-08-17 17:10:22.258836	lat	lng	-0.010986328125	0.035400390625	1.005615234375	2.717557251908397	-0.10687022900763359	1.1145038167938932	0.0	0.0	0.0
2017-08-17 17:10:22.275594	lat	lng	-0.00927734375	0.041015625	1.001708984375	2.4122137404580153	0.24427480916030533	0.6717557251908397	0.0	0.0	0.0
2017-08-17 17:10:22.292255	lat	lng	-0.0107421875	0.040771484375	0.999267578125	2.549618320610687	-0.07633587786259542	0.8396946564885496	0.0	0.0	0.0
2017-08-17 17:10:22.308916	lat	lng	-0.00634765625	0.033935546875	1.002685546875	2.564885496183206	-0.24427480916030533	0.6412213740458015	0.0	0.0	0.0
2017-08-17 17:10:22.325758	lat	lng	-0.010498046875	0.037841796875	0.99169921875	2.6717557251908395	-0.030534351145038167	0.6870229007633588	0.0	0.0	0.0
2017-08-17 17:10:22.346039	lat	lng	-0.009765625	0.0380859375	1.001953125	2.3053435114503817	-0.07633587786259542	0.8091603053435115	0.0	0.0	0.0
2017-08-17 17:10:22.366881	lat	lng	-0.010009765625	0.040283203125	1.004150390625	2.3969465648854964	-0.061068702290076333	0.5954198473282443	0.0	0.0	0.0
2017-08-17 17:10:22.383984	lat	lng	-0.0087890625	0.039306640625	1.005126953125	2.4580152671755724	-0.10687022900763359	0.6412213740458015	0.0	0.0	0.0
2017-08-17 17:10:22.401150	lat	lng	-0.010009765625	0.0361328125	1.000732421875	2.2442748091603053	0.030534351145038167	0.6412213740458015	0.0	0.0	0.0
2017-08-17 17:10:22.418314	lat	lng	-0.009765625	0.035400390625	1.000244140625	2.6106870229007635	-0.10687022900763359	0.7938931297709924	0.0	0.0	0.0
2017-08-17 17:10:22.435598	lat	lng	-0.010498046875	0.03759765625	1.002685546875	2.50381679389313	-0.183206106870229	0.6412213740458015	0.0	0.0	0.0
2017-08-17 17:10:22.452523	lat	lng	-0.011474609375	0.035888671875	1.007568359375	2.427480916030534	-0.2748091603053435	0.7786259541984732	0.0	0.0	0.0
2017-08-17 17:10:22.469709	lat	lng	-0.01025390625	0.039306640625	0.9921875	2.4885496183206106	-0.1984732824427481	0.6870229007633588	0.0	0.0	0.0
2017-08-17 17:10:22.486729	lat	lng	-0.01123046875	0.0390625	0.9970703125	2.595419847328244	0.0	0.6259541984732825	0.0	0.0	0.0
2017-08-17 17:10:22.503942	lat	lng	-0.01123046875	0.03662109375	0.99169921875	2.5801526717557253	0.04580152671755725	0.7786259541984732	0.0	0.0	0.0
2017-08-17 17:10:22.520825	lat	lng	-0.009033203125	0.0361328125	0.994384765625	2.50381679389313	0.030534351145038167	0.7175572519083969	0.0	0.0	0.0
2017-08-17 17:10:22.538186	lat	lng	-0.01025390625	0.0380859375	0.995849609375	2.198473282442748	-0.0916030534351145	0.6106870229007634	0.0	0.0	0.0
2017-08-17 17:10:22.556641	lat	lng	-0.0107421875	0.03564453125	0.99951171875	2.687022900763359	-0.32061068702290074	0.8244274809160306	0.0	0.0	0.0
2017-08-17 17:10:22.575075	lat	lng	-0.0087890625	0.0380859375	0.997314453125	2.50381679389313	3.8473282442748094	0.8549618320610687	0.0	0.0	0.0
2017-08-17 17:10:22.596163	lat	lng	-0.010498046875	0.03466796875	1.0	2.6717557251908395	-0.07633587786259542	0.6412213740458015	0.0	0.0	0.0
2017-08-17 17:10:22.626119	lat	lng	-0.0107421875	0.035888671875	1.00390625	2.50381679389313	-0.13740458015267176	0.916030534351145	0.0	0.0	0.0
2017-08-17 17:10:22.647134	lat	lng	-0.0078125	0.038330078125	1.0029296875	2.549618320610687	-0.15267175572519084	0.8396946564885496	0.0	0.0	0.0
2017-08-17 17:10:22.673069	lat	lng	-0.01220703125	0.035888671875	0.998291015625	2.366412213740458	0.07633587786259542	0.8702290076335878	0.0	0.0	0.0
2017-08-17 17:10:22.696065	lat	lng	-0.0078125	0.038330078125	1.004150390625	2.6717557251908395	0.07633587786259542	0.6412213740458015	0.0	0.0	0.0
2017-08-17 17:10:22.720524	lat	lng	-0.013427734375	0.0341796875	0.99365234375	2.5801526717557253	-0.015267175572519083	0.5801526717557252	0.0	0.0	0.0
2017-08-17 17:10:22.746559	lat	lng	-0.009521484375	0.038330078125	1.001953125	2.5343511450381677	-0.04580152671755725	0.7480916030534351	0.0	0.0	0.0
2017-08-17 17:10:22.771733	lat	lng	-0.009765625	0.036376953125	0.995361328125	2.5801526717557253	-3.9083969465648853	0.6870229007633588	0.0	0.0	0.0
2017-08-17 17:10:22.796366	lat	lng	-0.01123046875	0.036865234375	0.99755859375	2.763358778625954	-3.9083969465648853	0.6717557251908397	0.0	0.0	0.0
2017-08-17 17:10:22.818272	lat	lng	-0.005615234375	0.037353515625	1.007080078125	2.6564885496183206	0.015267175572519083	0.8854961832061069	0.0	0.0	0.0
2017-08-17 17:10:22.856321	lat	lng	-0.008544921875	0.03564453125	1.0009765625	2.9618320610687023	3.8931297709923665	0.9465648854961832	0.0	0.0	0.0
2017-08-17 17:10:22.881291	lat	lng	-0.01318359375	0.03466796875	1.00244140625	2.6564885496183206	-0.04580152671755725	1.0076335877862594	0.0	0.0	0.0
2017-08-17 17:10:22.903953	lat	lng	-0.009521484375	0.037109375	0.999267578125	2.4732824427480917	0.061068702290076333	0.7938931297709924	0.0	0.0	0.0
2017-08-17 17:10:22.925627	lat	lng	-0.009521484375	0.03271484375	1.003662109375	2.5343511450381677	0.15267175572519084	0.6717557251908397	0.0	0.0	0.0
2017-08-17 17:10:22.955364	lat	lng	-0.012451171875	0.037109375	0.987548828125	2.763358778625954	-0.15267175572519084	0.8549618320610687	0.0	0.0	0.0
2017-08-17 17:10:22.980070	lat	lng	-0.010009765625	0.0341796875	1.00244140625	2.4122137404580153	-0.3053435114503817	0.42748091603053434	0.0	0.0	0.0
2017-08-17 17:10:23.004328	lat	lng	-0.013671875	0.035888671875	1.004638671875	2.732824427480916	0.15267175572519084	0.7633587786259542	0.0	0.0	0.0
2017-08-17 17:10:23.020971	lat	lng	-0.010498046875	0.037109375	1.00048828125	2.687022900763359	-0.15267175572519084	0.6717557251908397	0.0	0.0	0.0
2017-08-17 17:10:23.043763	lat	lng	-0.0048828125	0.03125	1.0048828125	2.3206106870229006	-0.2748091603053435	0.916030534351145	0.0	0.0	0.0
2017-08-17 17:10:23.060625	lat	lng	-0.01025390625	0.040283203125	1.00390625	2.717557251908397	-0.15267175572519084	0.7175572519083969	0.0	0.0	0.0
2017-08-17 17:10:23.078399	lat	lng	-0.01318359375	0.040771484375	1.002197265625	2.4122137404580153	-0.2595419847328244	0.5648854961832062	0.0	0.0	0.0
2017-08-17 17:10:23.096252	lat	lng	-0.008544921875	0.034912109375	1.005859375	2.33587786259542	0.07633587786259542	0.7022900763358778	0.0	0.0	0.0
2017-08-17 17:10:23.116341	lat	lng	-0.01025390625	0.034423828125	1.003662109375	2.549618320610687	0.04580152671755725	0.8854961832061069	0.0	0.0	0.0
2017-08-17 17:10:23.134060	lat	lng	-0.012451171875	0.040283203125	1.001953125	2.5343511450381677	0.061068702290076333	0.8702290076335878	0.0	0.0	0.0
2017-08-17 17:10:23.150785	lat	lng	-0.00927734375	0.037109375	1.0	2.8396946564885495	-0.1984732824427481	0.6717557251908397	0.0	0.0	0.0
2017-08-17 17:10:23.167102	lat	lng	-0.007080078125	0.03662109375	0.998291015625	2.381679389312977	-0.12213740458015267	0.8549618320610687	0.0	0.0	0.0
2017-08-17 17:10:23.184377	lat	lng	-0.008544921875	0.040283203125	1.011962890625	2.595419847328244	-0.061068702290076333	0.6564885496183206	0.0	0.0	0.0
2017-08-17 17:10:23.200620	lat	lng	-0.007568359375	0.037841796875	0.998291015625	2.4885496183206106	0.061068702290076333	0.8244274809160306	0.0	0.0	0.0
2017-08-17 17:10:23.223588	lat	lng	-0.012451171875	0.03759765625	1.00146484375	2.4427480916030535	-0.10687022900763359	0.7175572519083969	0.0	0.0	0.0
2017-08-17 17:10:23.240117	lat	lng	-0.01025390625	0.037109375	1.000732421875	2.7022900763358777	-0.10687022900763359	0.8396946564885496	0.0	0.0	0.0
2017-08-17 17:10:23.256785	lat	lng	-0.007568359375	0.038818359375	1.006103515625	2.5801526717557253	-0.183206106870229	0.5954198473282443	0.0	0.0	0.0
2017-08-17 17:10:23.273463	lat	lng	-0.0078125	0.035888671875	1.003173828125	2.4732824427480917	-0.061068702290076333	0.7022900763358778	0.0	0.0	0.0
2017-08-17 17:10:23.291802	lat	lng	-0.009521484375	0.035888671875	0.999755859375	2.6412213740458017	-0.0916030534351145	0.8702290076335878	0.0	0.0	0.0
2017-08-17 17:10:23.308621	lat	lng	-0.009521484375	0.036865234375	1.0009765625	2.6717557251908395	-0.2900763358778626	0.5190839694656488	0.0	0.0	0.0
2017-08-17 17:10:23.332071	lat	lng	-0.007080078125	0.037841796875	1.00537109375	2.50381679389313	-0.061068702290076333	0.5648854961832062	0.0	0.0	0.0
2017-08-17 17:10:23.349696	lat	lng	-0.01171875	0.036376953125	1.0009765625	2.6412213740458017	0.15267175572519084	0.5954198473282443	0.0	0.0	0.0
2017-08-17 17:10:23.366861	lat	lng	-0.01025390625	0.0380859375	1.005126953125	2.6106870229007635	3.877862595419847	0.7480916030534351	0.0	0.0	0.0
2017-08-17 17:10:23.386820	lat	lng	-0.007568359375	0.032470703125	1.006103515625	2.595419847328244	-0.16793893129770993	0.916030534351145	0.0	0.0	0.0
2017-08-17 17:10:23.403676	lat	lng	-0.009521484375	0.03466796875	0.99365234375	2.4732824427480917	-0.10687022900763359	0.7480916030534351	0.0	0.0	0.0
2017-08-17 17:10:23.429351	lat	lng	-0.00732421875	0.039306640625	0.970458984375	2.6259541984732824	-0.13740458015267176	0.5801526717557252	0.0	0.0	0.0
2017-08-17 17:10:23.447495	lat	lng	-0.0107421875	0.0390625	1.005615234375	2.4580152671755724	-0.061068702290076333	0.732824427480916	0.0	0.0	0.0
2017-08-17 17:10:23.466257	lat	lng	-0.01123046875	0.042236328125	1.007568359375	2.6259541984732824	-0.030534351145038167	0.7480916030534351	0.0	0.0	0.0
2017-08-17 17:10:23.483893	lat	lng	-0.00927734375	0.033935546875	0.996826171875	2.5801526717557253	-0.13740458015267176	0.9618320610687023	0.0	0.0	0.0
2017-08-17 17:10:23.500655	lat	lng	-0.009521484375	0.03515625	1.00341796875	2.3969465648854964	0.10687022900763359	0.5648854961832062	0.0	0.0	0.0
2017-08-17 17:10:23.517526	lat	lng	-0.0068359375	0.035888671875	1.002685546875	2.564885496183206	-0.07633587786259542	0.5954198473282443	0.0	0.0	0.0
2017-08-17 17:10:23.534889	lat	lng	-0.00927734375	0.03662109375	1.008056640625	2.6106870229007635	-0.061068702290076333	0.6870229007633588	0.0	0.0	0.0
2017-08-17 17:10:23.553348	lat	lng	-0.010498046875	0.03515625	1.0009765625	2.6412213740458017	-0.015267175572519083	0.6259541984732825	0.0	0.0	0.0
2017-08-17 17:10:23.570466	lat	lng	-0.01513671875	0.037353515625	1.0029296875	2.732824427480916	-0.030534351145038167	0.6259541984732825	0.0	0.0	0.0
2017-08-17 17:10:23.588177	lat	lng	-0.00927734375	0.038818359375	1.005126953125	2.6564885496183206	-0.0916030534351145	0.8549618320610687	0.0	0.0	0.0
2017-08-17 17:10:23.605530	lat	lng	-0.00830078125	0.03662109375	1.006591796875	2.7480916030534353	-0.13740458015267176	0.7633587786259542	0.0	0.0	0.0
2017-08-17 17:10:23.627043	lat	lng	-0.009521484375	0.035400390625	0.99609375	2.6412213740458017	-0.15267175572519084	0.8549618320610687	0.0	0.0	0.0
2017-08-17 17:10:23.645693	lat	lng	-0.012451171875	0.032958984375	1.001953125	2.687022900763359	-0.12213740458015267	0.732824427480916	0.0	0.0	0.0
2017-08-17 17:10:23.664162	lat	lng	-0.01220703125	0.03857421875	1.00390625	2.7022900763358777	-0.366412213740458	0.732824427480916	0.0	0.0	0.0
2017-08-17 17:10:23.682278	lat	lng	-0.011962890625	0.036865234375	0.9921875	2.4732824427480917	-0.1984732824427481	0.6717557251908397	0.0	0.0	0.0
2017-08-17 17:10:23.705694	lat	lng	-0.00830078125	0.038818359375	1.00732421875	2.687022900763359	-0.12213740458015267	0.8091603053435115	0.0	0.0	0.0
2017-08-17 17:10:23.729355	lat	lng	-0.009765625	0.037109375	0.99267578125	2.564885496183206	0.07633587786259542	0.549618320610687	0.0	0.0	0.0
2017-08-17 17:10:23.754566	lat	lng	-0.01123046875	0.03857421875	1.00634765625	2.687022900763359	-0.16793893129770993	0.6259541984732825	0.0	0.0	0.0
2017-08-17 17:10:23.781634	lat	lng	-0.008544921875	0.039794921875	1.000732421875	2.8396946564885495	-0.0916030534351145	0.916030534351145	0.0	0.0	0.0
2017-08-17 17:10:23.803263	lat	lng	-0.01171875	0.036865234375	1.000244140625	2.8702290076335877	-3.8931297709923665	0.8549618320610687	0.0	0.0	0.0
2017-08-17 17:10:23.825408	lat	lng	-0.0107421875	0.0380859375	1.001953125	2.6717557251908395	0.04580152671755725	0.7022900763358778	0.0	0.0	0.0
2017-08-17 17:10:23.846793	lat	lng	-0.013427734375	0.037841796875	1.000732421875	2.8091603053435112	-0.32061068702290074	0.8396946564885496	0.0	0.0	0.0
2017-08-17 17:10:23.870205	lat	lng	-0.009765625	0.03759765625	1.02978515625	2.717557251908397	-0.3053435114503817	0.6412213740458015	0.0	0.0	0.0
2017-08-17 17:10:23.899243	lat	lng	-0.0107421875	0.037841796875	0.999755859375	2.6412213740458017	-0.061068702290076333	0.6717557251908397	0.0	0.0	0.0
2017-08-17 17:10:23.921190	lat	lng	-0.008056640625	0.036865234375	0.99853515625	2.549618320610687	-0.0916030534351145	0.6564885496183206	0.0	0.0	0.0
2017-08-17 17:10:23.942179	lat	lng	-0.01171875	0.03564453125	0.996826171875	2.8396946564885495	-0.10687022900763359	0.9465648854961832	0.0	0.0	0.0
2017-08-17 17:10:23.963752	lat	lng	-0.00830078125	0.037841796875	1.00537109375	2.2290076335877864	-0.10687022900763359	0.8244274809160306	0.0	0.0	0.0
2017-08-17 17:10:23.984952	lat	lng	-0.01220703125	0.03662109375	0.995361328125	2.763358778625954	-0.3053435114503817	0.8396946564885496	0.0	0.0	0.0
2017-08-17 17:10:24.004459	lat	lng	-0.0087890625	0.037841796875	1.002197265625	2.33587786259542	-0.22900763358778625	0.6870229007633588	0.0	0.0	0.0
2017-08-17 17:10:24.021399	lat	lng	-0.01025390625	0.036376953125	1.005126953125	2.687022900763359	-0.15267175572519084	0.6870229007633588	0.0	0.0	0.0
2017-08-17 17:10:24.037762	lat	lng	-0.01123046875	0.037109375	1.000244140625	2.5343511450381677	-0.07633587786259542	0.549618320610687	0.0	0.0	0.0
2017-08-17 17:10:24.057080	lat	lng	-0.009521484375	0.035400390625	1.0078125	2.6259541984732824	-0.030534351145038167	0.6412213740458015	0.0	0.0	0.0
2017-08-17 17:10:24.074316	lat	lng	-0.009033203125	0.037353515625	0.99853515625	2.3206106870229006	-0.13740458015267176	0.7633587786259542	0.0	0.0	0.0
2017-08-17 17:10:24.092117	lat	lng	-0.017578125	0.035400390625	1.005615234375	2.5801526717557253	-0.07633587786259542	0.6870229007633588	0.0	0.0	0.0
2017-08-17 17:10:24.110818	lat	lng	-0.00634765625	0.03564453125	0.999267578125	2.687022900763359	0.16793893129770993	0.7175572519083969	0.0	0.0	0.0
2017-08-17 17:10:24.128718	lat	lng	-0.009521484375	0.039794921875	1.0087890625	2.549618320610687	-0.12213740458015267	0.6717557251908397	0.0	0.0	0.0
2017-08-17 17:10:24.145991	lat	lng	-0.0068359375	0.038330078125	1.0	2.7938931297709924	-3.8931297709923665	0.8702290076335878	0.0	0.0	0.0
2017-08-17 17:10:24.163984	lat	lng	-0.010009765625	0.035888671875	1.000732421875	2.6412213740458017	-0.183206106870229	0.6412213740458015	0.0	0.0	0.0
2017-08-17 17:10:24.181052	lat	lng	-0.010498046875	0.0341796875	1.004150390625	2.6259541984732824	-0.04580152671755725	0.7480916030534351	0.0	0.0	0.0
2017-08-17 17:10:24.202324	lat	lng	-0.00830078125	0.036865234375	0.9990234375	2.549618320610687	-0.07633587786259542	0.8091603053435115	0.0	0.0	0.0
2017-08-17 17:10:24.219415	lat	lng	-0.005126953125	0.037841796875	1.008056640625	2.6106870229007635	-0.10687022900763359	0.6717557251908397	0.0	0.0	0.0
2017-08-17 17:10:24.236997	lat	lng	-0.011962890625	0.03759765625	1.004638671875	2.8396946564885495	0.030534351145038167	0.7175572519083969	0.0	0.0	0.0
2017-08-17 17:10:24.254158	lat	lng	-0.0087890625	0.03857421875	1.0029296875	2.6106870229007635	0.04580152671755725	0.6412213740458015	0.0	0.0	0.0
2017-08-17 17:10:24.271551	lat	lng	-0.0087890625	0.03857421875	0.999755859375	2.3969465648854964	-0.21374045801526717	0.9312977099236641	0.0	0.0	0.0
2017-08-17 17:10:24.288594	lat	lng	-0.00927734375	0.03466796875	1.006591796875	2.6564885496183206	-0.21374045801526717	0.7480916030534351	0.0	0.0	0.0
2017-08-17 17:10:24.311176	lat	lng	-0.009033203125	0.038330078125	1.001708984375	2.519083969465649	-0.061068702290076333	0.6412213740458015	0.0	0.0	0.0
2017-08-17 17:10:24.329239	lat	lng	-0.008544921875	0.037353515625	1.00244140625	2.366412213740458	-0.24427480916030533	0.732824427480916	0.0	0.0	0.0
2017-08-17 17:10:24.347236	lat	lng	-0.010498046875	0.0380859375	1.00341796875	2.5801526717557253	-0.015267175572519083	0.7022900763358778	0.0	0.0	0.0
2017-08-17 17:10:24.364411	lat	lng	-0.007080078125	0.041748046875	1.00146484375	2.6259541984732824	-0.13740458015267176	0.7480916030534351	0.0	0.0	0.0
2017-08-17 17:10:24.382500	lat	lng	-0.0087890625	0.040283203125	0.99658203125	2.5801526717557253	-0.10687022900763359	0.6106870229007634	0.0	0.0	0.0
2017-08-17 17:10:24.404710	lat	lng	-0.011474609375	0.035888671875	1.0068359375	2.366412213740458	-0.183206106870229	0.7022900763358778	0.0	0.0	0.0
2017-08-17 17:10:24.421936	lat	lng	-0.011474609375	0.033447265625	1.002197265625	2.687022900763359	-0.3816793893129771	0.7480916030534351	0.0	0.0	0.0
2017-08-17 17:10:24.438660	lat	lng	-0.008056640625	0.03662109375	0.996826171875	2.6106870229007635	-0.33587786259541985	0.8396946564885496	0.0	0.0	0.0
2017-08-17 17:10:24.455477	lat	lng	-0.006591796875	0.037841796875	0.998291015625	2.6412213740458017	-0.04580152671755725	0.7022900763358778	0.0	0.0	0.0
2017-08-17 17:10:24.472169	lat	lng	-0.009033203125	0.037109375	1.00048828125	2.564885496183206	-0.16793893129770993	0.6717557251908397	0.0	0.0	0.0
2017-08-17 17:10:24.488885	lat	lng	-0.00927734375	0.035888671875	1.002197265625	2.4122137404580153	-0.10687022900763359	0.7480916030534351	0.0	0.0	0.0
2017-08-17 17:10:24.505582	lat	lng	-0.009521484375	0.0380859375	1.000732421875	2.564885496183206	-0.07633587786259542	0.8091603053435115	0.0	0.0	0.0
2017-08-17 17:10:24.521920	lat	lng	-0.009765625	0.03564453125	0.994873046875	2.7786259541984735	-0.21374045801526717	0.7633587786259542	0.0	0.0	0.0
2017-08-17 17:10:24.538295	lat	lng	-0.010986328125	0.03369140625	1.007568359375	2.6564885496183206	-0.1984732824427481	0.6259541984732825	0.0	0.0	0.0
2017-08-17 17:10:24.554691	lat	lng	-0.011474609375	0.036376953125	1.004150390625	2.3969465648854964	0.0	0.5038167938931297	0.0	0.0	0.0
2017-08-17 17:10:24.571092	lat	lng	-0.011474609375	0.036865234375	0.99755859375	2.6564885496183206	-0.10687022900763359	0.732824427480916	0.0	0.0	0.0
2017-08-17 17:10:24.588186	lat	lng	-0.010986328125	0.039794921875	0.993896484375	2.687022900763359	-0.13740458015267176	0.8091603053435115	0.0	0.0	0.0
2017-08-17 17:10:24.605113	lat	lng	-0.012451171875	0.037109375	1.002685546875	2.6717557251908395	-0.3511450381679389	0.5954198473282443	0.0	0.0	0.0
2017-08-17 17:10:24.622252	lat	lng	-0.00927734375	0.040283203125	1.004638671875	2.5801526717557253	0.015267175572519083	0.7175572519083969	0.0	0.0	0.0
2017-08-17 17:10:24.638724	lat	lng	-0.010498046875	0.038818359375	1.00244140625	2.50381679389313	-0.030534351145038167	0.9007633587786259	0.0	0.0	0.0
2017-08-17 17:10:24.655702	lat	lng	-0.009521484375	0.035888671875	1.000244140625	2.33587786259542	0.0916030534351145	0.7633587786259542	0.0	0.0	0.0
2017-08-17 17:10:24.672311	lat	lng	-0.0126953125	0.0361328125	1.00439453125	2.8244274809160306	-0.12213740458015267	0.8244274809160306	0.0	0.0	0.0
2017-08-17 17:10:24.689068	lat	lng	-0.011962890625	0.038818359375	1.000732421875	2.5801526717557253	-0.07633587786259542	0.7938931297709924	0.0	0.0	0.0
2017-08-17 17:10:24.707902	lat	lng	-0.01123046875	0.03955078125	1.010498046875	2.717557251908397	0.16793893129770993	0.7480916030534351	0.0	0.0	0.0
2017-08-17 17:10:24.729758	lat	lng	-0.01123046875	0.0361328125	1.005126953125	2.732824427480916	0.07633587786259542	0.9312977099236641	0.0	0.0	0.0
2017-08-17 17:10:24.751015	lat	lng	-0.01171875	0.037841796875	1.0048828125	2.427480916030534	-0.21374045801526717	0.7175572519083969	0.0	0.0	0.0
2017-08-17 17:10:24.775412	lat	lng	-0.008056640625	0.0361328125	1.005859375	2.564885496183206	0.10687022900763359	0.6717557251908397	0.0	0.0	0.0
2017-08-17 17:10:24.798006	lat	lng	-0.0107421875	0.03662109375	1.00146484375	2.3969465648854964	0.10687022900763359	0.7480916030534351	0.0	0.0	0.0
2017-08-17 17:10:24.820880	lat	lng	-0.00830078125	0.039306640625	1.009033203125	2.6564885496183206	0.13740458015267176	0.732824427480916	0.0	0.0	0.0
2017-08-17 17:10:24.849749	lat	lng	-0.010498046875	0.034423828125	1.008544921875	2.564885496183206	-0.04580152671755725	0.6717557251908397	0.0	0.0	0.0
2017-08-17 17:10:24.880009	lat	lng	-0.012939453125	0.04248046875	0.997802734375	2.5343511450381677	-0.3816793893129771	0.8091603053435115	0.0	0.0	0.0
2017-08-17 17:10:24.902626	lat	lng	-0.009521484375	0.036376953125	0.99658203125	2.427480916030534	-0.0916030534351145	0.5801526717557252	0.0	0.0	0.0
2017-08-17 17:10:24.926759	lat	lng	-0.008056640625	0.0361328125	0.99560546875	2.50381679389313	-0.10687022900763359	0.8091603053435115	0.0	0.0	0.0
2017-08-17 17:10:24.951186	lat	lng	-0.01318359375	0.035400390625	0.996337890625	2.6259541984732824	-0.061068702290076333	0.8549618320610687	0.0	0.0	0.0
2017-08-17 17:10:24.975585	lat	lng	-0.010986328125	0.0380859375	1.00439453125	2.381679389312977	-0.030534351145038167	0.6717557251908397	0.0	0.0	0.0
2017-08-17 17:10:24.998585	lat	lng	-0.00927734375	0.036865234375	1.0078125	2.3969465648854964	-0.183206106870229	0.9465648854961832	0.0	0.0	0.0
2017-08-17 17:10:25.029060	lat	lng	-0.01123046875	0.042724609375	0.9951171875	2.4732824427480917	-0.015267175572519083	0.8549618320610687	0.0	0.0	0.0
2017-08-17 17:10:25.050181	lat	lng	-0.009033203125	0.04150390625	0.9990234375	2.2900763358778624	0.0	0.7938931297709924	0.0	0.0	0.0
2017-08-17 17:10:25.076489	lat	lng	-0.01123046875	0.03662109375	0.994873046875	2.717557251908397	-0.10687022900763359	0.5801526717557252	0.0	0.0	0.0
2017-08-17 17:10:25.106397	lat	lng	-0.0107421875	0.037109375	0.99755859375	2.595419847328244	-0.061068702290076333	0.6717557251908397	0.0	0.0	0.0
2017-08-17 17:10:25.138515	lat	lng	-0.008056640625	0.038330078125	0.991943359375	2.5343511450381677	-0.061068702290076333	0.7022900763358778	0.0	0.0	0.0
2017-08-17 17:10:25.161245	lat	lng	-0.0078125	0.0361328125	0.99658203125	2.6412213740458017	-0.10687022900763359	0.9312977099236641	0.0	0.0	0.0
2017-08-17 17:10:25.187854	lat	lng	-0.00732421875	0.03564453125	0.9970703125	2.564885496183206	-0.2595419847328244	0.8854961832061069	0.0	0.0	0.0
2017-08-17 17:10:25.220670	lat	lng	-0.00830078125	0.03662109375	1.00048828125	2.4885496183206106	-0.0916030534351145	0.8091603053435115	0.0	0.0	0.0
2017-08-17 17:10:25.237545	lat	lng	-0.005615234375	0.0341796875	0.99755859375	2.7022900763358777	-0.10687022900763359	0.7480916030534351	0.0	0.0	0.0
2017-08-17 17:10:25.258043	lat	lng	-0.008544921875	0.040771484375	0.995361328125	2.6106870229007635	0.04580152671755725	0.7022900763358778	0.0	0.0	0.0
2017-08-17 17:10:25.275244	lat	lng	-0.0068359375	0.0390625	1.00341796875	2.4122137404580153	0.061068702290076333	0.8091603053435115	0.0	0.0	0.0
2017-08-17 17:10:25.294255	lat	lng	-0.016357421875	0.035888671875	1.004150390625	2.7022900763358777	-0.13740458015267176	0.6717557251908397	0.0	0.0	0.0
2017-08-17 17:10:25.311306	lat	lng	-0.014404296875	0.0361328125	1.005615234375	2.5343511450381677	-0.13740458015267176	0.6564885496183206	0.0	0.0	0.0
2017-08-17 17:10:25.329260	lat	lng	-0.00927734375	0.03662109375	1.002685546875	2.6412213740458017	0.015267175572519083	0.549618320610687	0.0	0.0	0.0
2017-08-17 17:10:25.346419	lat	lng	-0.009765625	0.0380859375	0.999755859375	2.717557251908397	-0.04580152671755725	0.549618320610687	0.0	0.0	0.0
2017-08-17 17:10:25.365456	lat	lng	-0.006103515625	0.036376953125	1.009521484375	2.564885496183206	-0.030534351145038167	0.6870229007633588	0.0	0.0	0.0
2017-08-17 17:10:25.382413	lat	lng	-0.010498046875	0.03759765625	1.00146484375	2.595419847328244	-0.15267175572519084	0.6259541984732825	0.0	0.0	0.0
2017-08-17 17:10:25.400685	lat	lng	-0.008056640625	0.037109375	1.000244140625	2.5801526717557253	-0.061068702290076333	0.6259541984732825	0.0	0.0	0.0
2017-08-17 17:10:25.417681	lat	lng	-0.010498046875	0.034423828125	1.00244140625	2.519083969465649	-0.061068702290076333	0.6870229007633588	0.0	0.0	0.0
2017-08-17 17:10:25.435933	lat	lng	-0.010986328125	0.0341796875	1.00146484375	2.732824427480916	-0.07633587786259542	0.7022900763358778	0.0	0.0	0.0
2017-08-17 17:10:25.452754	lat	lng	-0.0078125	0.036865234375	1.00390625	2.595419847328244	-0.2900763358778626	0.6412213740458015	0.0	0.0	0.0
2017-08-17 17:10:25.471710	lat	lng	-0.0078125	0.03759765625	1.001953125	2.564885496183206	-0.15267175572519084	0.7022900763358778	0.0	0.0	0.0
2017-08-17 17:10:25.488596	lat	lng	-0.006103515625	0.037841796875	1.001220703125	2.7480916030534353	-0.0916030534351145	0.6106870229007634	0.0	0.0	0.0
2017-08-17 17:10:25.507009	lat	lng	-0.00537109375	0.038330078125	1.000244140625	2.564885496183206	0.04580152671755725	0.9007633587786259	0.0	0.0	0.0
2017-08-17 17:10:25.523868	lat	lng	-0.01025390625	0.034423828125	1.01025390625	2.6564885496183206	0.0	0.5801526717557252	0.0	0.0	0.0
2017-08-17 17:10:25.541867	lat	lng	-0.015380859375	0.03369140625	1.006103515625	2.4885496183206106	-0.3969465648854962	0.6412213740458015	0.0	0.0	0.0
2017-08-17 17:10:25.558673	lat	lng	-0.0107421875	0.0361328125	1.00732421875	2.7022900763358777	-0.15267175572519084	0.9007633587786259	0.0	0.0	0.0
2017-08-17 17:10:25.577020	lat	lng	-0.011474609375	0.03564453125	1.00390625	2.6412213740458017	-0.07633587786259542	0.7022900763358778	0.0	0.0	0.0
2017-08-17 17:10:25.596012	lat	lng	-0.008544921875	0.036376953125	1.00390625	2.549618320610687	-0.15267175572519084	0.6564885496183206	0.0	0.0	0.0
2017-08-17 17:10:25.616114	lat	lng	-0.01025390625	0.038330078125	0.99658203125	2.50381679389313	0.04580152671755725	0.8396946564885496	0.0	0.0	0.0
2017-08-17 17:10:25.635334	lat	lng	-0.010986328125	0.032958984375	1.00146484375	2.549618320610687	-0.12213740458015267	0.9312977099236641	0.0	0.0	0.0
2017-08-17 17:10:25.654579	lat	lng	-0.008056640625	0.040771484375	1.00439453125	2.549618320610687	-0.13740458015267176	0.6870229007633588	0.0	0.0	0.0
2017-08-17 17:10:25.672118	lat	lng	-0.010009765625	0.03466796875	0.9990234375	2.6412213740458017	-0.13740458015267176	0.549618320610687	0.0	0.0	0.0
2017-08-17 17:10:25.689917	lat	lng	-0.0087890625	0.0390625	1.0	2.564885496183206	-0.24427480916030533	0.7938931297709924	0.0	0.0	0.0
2017-08-17 17:10:25.707269	lat	lng	-0.010986328125	0.0380859375	0.9970703125	2.595419847328244	-0.24427480916030533	0.7786259541984732	0.0	0.0	0.0
2017-08-17 17:10:25.724380	lat	lng	-0.008056640625	0.038330078125	1.001708984375	2.7480916030534353	-0.13740458015267176	0.6717557251908397	0.0	0.0	0.0
2017-08-17 17:10:25.741309	lat	lng	-0.013671875	0.0390625	0.998779296875	2.4885496183206106	0.13740458015267176	0.6412213740458015	0.0	0.0	0.0
2017-08-17 17:10:25.760400	lat	lng	-0.00927734375	0.033935546875	0.971435546875	2.549618320610687	-0.13740458015267176	0.8854961832061069	0.0	0.0	0.0
2017-08-17 17:10:25.778529	lat	lng	-0.00927734375	0.037841796875	1.00390625	2.366412213740458	-0.07633587786259542	0.6259541984732825	0.0	0.0	0.0
2017-08-17 17:10:25.797173	lat	lng	-0.0087890625	0.039794921875	1.00390625	2.4732824427480917	-0.0916030534351145	0.5648854961832062	0.0	0.0	0.0
2017-08-17 17:10:25.818170	lat	lng	-0.01025390625	0.0380859375	1.000244140625	2.381679389312977	-0.12213740458015267	0.8854961832061069	0.0	0.0	0.0
2017-08-17 17:10:25.836158	lat	lng	-0.010009765625	0.037353515625	1.003662109375	2.519083969465649	-0.15267175572519084	0.7633587786259542	0.0	0.0	0.0
2017-08-17 17:10:25.854734	lat	lng	-0.0078125	0.0380859375	1.000732421875	2.3969465648854964	-0.15267175572519084	0.8854961832061069	0.0	0.0	0.0
2017-08-17 17:10:25.872540	lat	lng	-0.00830078125	0.037109375	1.000244140625	2.687022900763359	-0.0916030534351145	0.7022900763358778	0.0	0.0	0.0
2017-08-17 17:10:25.892051	lat	lng	-0.01025390625	0.037841796875	0.999755859375	2.4885496183206106	0.16793893129770993	1.0381679389312977	0.0	0.0	0.0
2017-08-17 17:10:25.909938	lat	lng	-0.00830078125	0.038818359375	0.997802734375	2.5801526717557253	-0.183206106870229	0.5954198473282443	0.0	0.0	0.0
2017-08-17 17:10:25.935064	lat	lng	-0.0078125	0.036376953125	0.995849609375	2.2900763358778624	-0.10687022900763359	0.8244274809160306	0.0	0.0	0.0
2017-08-17 17:10:25.965148	lat	lng	-0.012939453125	0.035888671875	1.001953125	2.4732824427480917	-0.183206106870229	0.7938931297709924	0.0	0.0	0.0
2017-08-17 17:10:25.988000	lat	lng	-0.010498046875	0.033447265625	1.00048828125	2.427480916030534	-0.061068702290076333	0.732824427480916	0.0	0.0	0.0
2017-08-17 17:10:26.009708	lat	lng	-0.010009765625	0.0361328125	0.996337890625	2.564885496183206	-0.2748091603053435	0.6106870229007634	0.0	0.0	0.0
2017-08-17 17:10:26.027403	lat	lng	-0.0087890625	0.0419921875	0.999267578125	2.763358778625954	-0.15267175572519084	0.5343511450381679	0.0	0.0	0.0
2017-08-17 17:10:26.044329	lat	lng	-0.009765625	0.034912109375	1.001953125	2.5343511450381677	-0.15267175572519084	0.7175572519083969	0.0	0.0	0.0
2017-08-17 17:10:26.061199	lat	lng	-0.009033203125	0.036865234375	1.007080078125	2.7480916030534353	-0.10687022900763359	0.7022900763358778	0.0	0.0	0.0
2017-08-17 17:10:26.077955	lat	lng	-0.01123046875	0.03564453125	0.999755859375	2.427480916030534	-0.10687022900763359	0.6412213740458015	0.0	0.0	0.0
2017-08-17 17:10:26.095221	lat	lng	-0.007568359375	0.035888671875	0.99951171875	2.4427480916030535	0.07633587786259542	0.7786259541984732	0.0	0.0	0.0
2017-08-17 17:10:26.113308	lat	lng	-0.01220703125	0.035888671875	0.999267578125	2.7480916030534353	0.030534351145038167	0.732824427480916	0.0	0.0	0.0
2017-08-17 17:10:26.130612	lat	lng	-0.01953125	0.0556640625	0.9775390625	2.2748091603053435	-1.786259541984733	0.0	0.0	0.0	0.0
2017-08-17 17:10:26.148465	lat	lng	0.078857421875	0.33837890625	1.014892578125	2.9618320610687023	0.22900763358778625	-6.412213740458015	0.0	0.0	0.0
2017-08-17 17:10:26.164896	lat	lng	0.024169921875	0.449951171875	0.992431640625	3.5267175572519083	-0.6564885496183206	-41.603053435114504	0.0	0.0	0.0
2017-08-17 17:10:26.181937	lat	lng	0.0166015625	0.21435546875	0.994140625	3.3893129770992365	-2.5343511450381677	-61.11450381679389	0.0	0.0	0.0
2017-08-17 17:10:26.198293	lat	lng	-0.006103515625	0.114501953125	1.021484375	4.183206106870229	1.7557251908396947	-71.19083969465649	0.0	0.0	0.0
2017-08-17 17:10:26.221349	lat	lng	-0.00927734375	0.200927734375	1.017578125	3.7709923664122136	1.6641221374045803	-98.65648854961832	0.0	0.0	0.0
2017-08-17 17:10:26.241098	lat	lng	0.0048828125	-0.236328125	1.025634765625	4.152671755725191	1.4351145038167938	-87.54198473282443	0.0	0.0	0.0
2017-08-17 17:10:26.258471	lat	lng	-0.000732421875	-0.17919921875	1.087890625	5.206106870229007	2.885496183206107	-75.31297709923665	0.0	0.0	0.0
2017-08-17 17:10:26.275095	lat	lng	-0.00537109375	0.115478515625	0.9765625	4.0458015267175576	-1.7404580152671756	-67.22137404580153	0.0	0.0	0.0
2017-08-17 17:10:26.292844	lat	lng	0.03076171875	-0.074951171875	1.04736328125	5.297709923664122	-0.916030534351145	-61.02290076335878	0.0	0.0	0.0
2017-08-17 17:10:26.309650	lat	lng	0.0263671875	0.18017578125	0.98681640625	3.801526717557252	-0.16793893129770993	-69.31297709923665	0.0	0.0	0.0
2017-08-17 17:10:26.332839	lat	lng	-0.06982421875	-0.123291015625	0.92626953125	3.969465648854962	0.22900763358778625	-73.41984732824427	0.0	0.0	0.0
2017-08-17 17:10:26.354541	lat	lng	0.03466796875	-0.1640625	1.114990234375	3.2213740458015265	0.8091603053435115	-62.33587786259542	0.0	0.0	0.0
2017-08-17 17:10:26.372843	lat	lng	-0.0087890625	0.032470703125	0.931884765625	5.083969465648855	-1.6488549618320612	-68.56488549618321	0.0	0.0	0.0
2017-08-17 17:10:26.390153	lat	lng	0.053466796875	0.062744140625	0.9794921875	3.648854961832061	1.1297709923664123	-59.06870229007634	0.0	0.0	0.0
2017-08-17 17:10:26.409284	lat	lng	0.021240234375	-0.0498046875	1.029541015625	3.6946564885496183	1.8473282442748091	-58.93129770992366	0.0	0.0	0.0
2017-08-17 17:10:26.426997	lat	lng	-0.00390625	-0.17724609375	1.076416015625	4.488549618320611	2.4885496183206106	-58.25954198473283	0.0	0.0	0.0
2017-08-17 17:10:26.445974	lat	lng	-0.0361328125	-0.1357421875	1.007080078125	3.9236641221374047	-1.786259541984733	-57.31297709923664	0.0	0.0	0.0
2017-08-17 17:10:26.466971	lat	lng	-0.025634765625	0.17822265625	1.044189453125	3.0381679389312977	4.6106870229007635	-60.152671755725194	0.0	0.0	0.0
2017-08-17 17:10:26.483495	lat	lng	-0.03759765625	-0.033935546875	0.9833984375	6.442748091603053	-2.687022900763359	-58.87022900763359	0.0	0.0	0.0
2017-08-17 17:10:26.500147	lat	lng	0.032958984375	0.11474609375	1.00439453125	4.961832061068702	1.3893129770992367	-60.85496183206107	0.0	0.0	0.0
2017-08-17 17:10:26.519251	lat	lng	-0.04443359375	-0.02880859375	1.014404296875	4.885496183206107	-3.2977099236641223	-63.16030534351145	0.0	0.0	0.0
2017-08-17 17:10:26.537964	lat	lng	-0.04931640625	-0.0634765625	1.0078125	5.038167938931298	2.015267175572519	-72.36641221374046	0.0	0.0	0.0
2017-08-17 17:10:26.556607	lat	lng	-0.004150390625	0.18408203125	0.955322265625	2.030534351145038	1.3587786259541985	-78.33587786259542	0.0	0.0	0.0
2017-08-17 17:10:26.574679	lat	lng	0.039794921875	-0.01318359375	1.05908203125	6.061068702290076	-2.2290076335877864	-69.87786259541984	0.0	0.0	0.0
2017-08-17 17:10:26.590933	lat	lng	0.064453125	0.1474609375	1.060302734375	2.595419847328244	1.0229007633587786	-68.62595419847328	0.0	0.0	0.0
2017-08-17 17:10:26.608796	lat	lng	0.005126953125	0.0947265625	0.97998046875	7.755725190839694	2.519083969465649	-73.96946564885496	0.0	0.0	0.0
2017-08-17 17:10:26.625461	lat	lng	0.056396484375	-0.06982421875	1.01220703125	5.251908396946565	2.50381679389313	-74.35114503816794	0.0	0.0	0.0
2017-08-17 17:10:26.642469	lat	lng	0.068115234375	-0.123779296875	1.12646484375	3.099236641221374	4.3816793893129775	-54.732824427480914	0.0	0.0	0.0
2017-08-17 17:10:26.659304	lat	lng	0.0517578125	-0.06787109375	0.959716796875	2.8702290076335877	1.7557251908396947	-36.76335877862596	0.0	0.0	0.0
2017-08-17 17:10:26.676100	lat	lng	-0.0361328125	0.06640625	1.00537109375	5.221374045801527	0.48854961832061067	-25.114503816793892	0.0	0.0	0.0
2017-08-17 17:10:26.692827	lat	lng	0.0419921875	-0.110595703125	1.14990234375	4.366412213740458	3.0839694656488548	-26.33587786259542	0.0	0.0	0.0
2017-08-17 17:10:26.709962	lat	lng	0.04296875	0.074951171875	1.0361328125	3.267175572519084	0.15267175572519084	-33.099236641221374	0.0	0.0	0.0
2017-08-17 17:10:26.727477	lat	lng	0.078369140625	0.19140625	0.959228515625	2.3053435114503817	-4.091603053435114	-54.18320610687023	0.0	0.0	0.0
2017-08-17 17:10:26.749717	lat	lng	-0.02490234375	-0.08447265625	0.900634765625	3.648854961832061	-1.5877862595419847	-52.82442748091603	0.0	0.0	0.0
2017-08-17 17:10:26.772019	lat	lng	-0.04150390625	-0.048828125	0.863037109375	3.3893129770992365	-3.1603053435114505	-50.229007633587784	0.0	0.0	0.0
2017-08-17 17:10:26.792922	lat	lng	0.006103515625	0.001708984375	0.960205078125	2.4732824427480917	0.549618320610687	-41.69465648854962	0.0	0.0	0.0
2017-08-17 17:10:26.814527	lat	lng	-0.095703125	0.0908203125	0.906982421875	5.022900763358779	-5.816793893129771	-48.42748091603053	0.0	0.0	0.0
2017-08-17 17:10:26.835920	lat	lng	0.042724609375	0.21875	0.947509765625	1.5725190839694656	0.366412213740458	-45.25190839694657	0.0	0.0	0.0
2017-08-17 17:10:26.857329	lat	lng	-0.027099609375	0.039794921875	0.98095703125	7.6183206106870225	0.183206106870229	-63.6793893129771	0.0	0.0	0.0
2017-08-17 17:10:26.878626	lat	lng	0.0234375	-0.0400390625	1.074462890625	3.2061068702290076	0.24427480916030533	-82.76335877862596	0.0	0.0	0.0
2017-08-17 17:10:26.899941	lat	lng	-0.030517578125	0.16943359375	0.891357421875	5.694656488549619	0.9312977099236641	-79.69465648854961	0.0	0.0	0.0
2017-08-17 17:10:26.920645	lat	lng	-0.047607421875	0.2958984375	0.893310546875	2.1068702290076335	-3.8473282442748094	-79.77099236641222	0.0	0.0	0.0
2017-08-17 17:10:26.941508	lat	lng	0.15185546875	0.208251953125	1.311767578125	7.083969465648855	19.19083969465649	-98.19847328244275	0.0	0.0	0.0
2017-08-17 17:10:26.962010	lat	lng	-0.059814453125	0.12255859375	0.835693359375	2.8244274809160306	-11.267175572519085	-140.54961832061068	0.0	0.0	0.0
2017-08-17 17:10:26.982324	lat	lng	0.03515625	-0.124267578125	1.10693359375	4.534351145038168	6.9465648854961835	-150.74809160305344	0.0	0.0	0.0
2017-08-17 17:10:27.003021	lat	lng	0.011962890625	-0.12060546875	0.924072265625	5.267175572519084	-0.9465648854961832	-134.06106870229007	0.0	0.0	0.0
2017-08-17 17:10:27.023435	lat	lng	0.06201171875	0.011474609375	1.066650390625	5.694656488549619	4.244274809160306	-104.29007633587786	0.0	0.0	0.0
2017-08-17 17:10:27.043950	lat	lng	-0.0673828125	0.1513671875	0.89501953125	4.717557251908397	-4.061068702290076	-73.80152671755725	0.0	0.0	0.0
2017-08-17 17:10:27.064317	lat	lng	-0.009521484375	0.011474609375	0.975341796875	2.687022900763359	-1.1603053435114503	-106.58015267175573	0.0	0.0	0.0
2017-08-17 17:10:27.084855	lat	lng	-0.010009765625	0.027587890625	1.00341796875	4.091603053435114	2.8091603053435112	-100.73282442748092	0.0	0.0	0.0
2017-08-17 17:10:27.105606	lat	lng	-0.015380859375	0.1181640625	0.977783203125	4.427480916030534	-4.1679389312977095	-110.70229007633588	0.0	0.0	0.0
2017-08-17 17:10:27.126127	lat	lng	0.06103515625	-0.057373046875	1.058837890625	5.312977099236641	-4.809160305343512	-101.89312977099236	0.0	0.0	0.0
2017-08-17 17:10:27.146559	lat	lng	0.092041015625	-0.174560546875	1.0009765625	4.0458015267175576	-2.900763358778626	-90.77862595419847	0.0	0.0	0.0
2017-08-17 17:10:27.167097	lat	lng	0.0068359375	0.03662109375	0.9287109375	6.106870229007634	-5.465648854961832	-80.38167938931298	0.0	0.0	0.0
2017-08-17 17:10:27.187576	lat	lng	-0.05078125	0.002685546875	1.032958984375	4.213740458015267	2.854961832061069	-80.42748091603053	0.0	0.0	0.0
2017-08-17 17:10:27.208324	lat	lng	0.029296875	0.026123046875	1.1240234375	5.938931297709924	1.8931297709923665	-88.93129770992367	0.0	0.0	0.0
2017-08-17 17:10:27.228925	lat	lng	-0.00830078125	0.01708984375	1.03515625	4.396946564885496	0.4122137404580153	-87.54198473282443	0.0	0.0	0.0
2017-08-17 17:10:27.250379	lat	lng	0.00048828125	0.067626953125	1.00537109375	4.076335877862595	1.633587786259542	-84.54961832061069	0.0	0.0	0.0
2017-08-17 17:10:27.273927	lat	lng	-0.041748046875	0.146484375	0.962890625	2.8702290076335877	-1.4045801526717556	-86.54961832061069	0.0	0.0	0.0
2017-08-17 17:10:27.306556	lat	lng	0.043212890625	-0.060791015625	1.048828125	7.236641221374046	0.6870229007633588	-97.96946564885496	0.0	0.0	0.0
2017-08-17 17:10:27.329264	lat	lng	0.008056640625	0.0263671875	1.01611328125	4.458015267175573	0.22900763358778625	-107.89312977099236	0.0	0.0	0.0
2017-08-17 17:10:27.346484	lat	lng	0.02392578125	0.08837890625	1.073974609375	5.984732824427481	3.0381679389312977	-118.8854961832061	0.0	0.0	0.0
2017-08-17 17:10:27.363265	lat	lng	0.002197265625	-0.0048828125	1.0087890625	5.0534351145038165	1.6488549618320612	-112.74809160305344	0.0	0.0	0.0
2017-08-17 17:10:27.380289	lat	lng	0.0048828125	-0.030029296875	0.997314453125	4.412213740458015	1.7099236641221374	-109.6793893129771	0.0	0.0	0.0
2017-08-17 17:10:27.397072	lat	lng	-0.029541015625	-0.029541015625	0.944091796875	5.190839694656488	-3.1297709923664123	-104.73282442748092	0.0	0.0	0.0
2017-08-17 17:10:27.414311	lat	lng	0.0390625	-0.109130859375	1.004638671875	5.00763358778626	3.9236641221374047	-99.46564885496183	0.0	0.0	0.0
2017-08-17 17:10:27.431084	lat	lng	0.010986328125	0.03271484375	1.014404296875	3.7099236641221376	1.465648854961832	-88.51908396946565	0.0	0.0	0.0
2017-08-17 17:10:27.448172	lat	lng	-0.00830078125	0.084228515625	0.956298828125	3.404580152671756	-3.1755725190839694	-78.22900763358778	0.0	0.0	0.0
2017-08-17 17:10:27.465307	lat	lng	-0.01513671875	0.0859375	0.906982421875	6.748091603053435	-7.679389312977099	-80.42748091603053	0.0	0.0	0.0
2017-08-17 17:10:27.482386	lat	lng	0.043212890625	0.1005859375	1.1083984375	7.770992366412214	6.580152671755725	-79.02290076335878	0.0	0.0	0.0
2017-08-17 17:10:27.499137	lat	lng	0.064453125	0.1572265625	1.04052734375	2.2748091603053435	0.9618320610687023	-81.74045801526718	0.0	0.0	0.0
2017-08-17 17:10:27.516248	lat	lng	-0.05078125	0.02685546875	0.95654296875	7.419847328244275	-4.442748091603053	-91.61832061068702	0.0	0.0	0.0
2017-08-17 17:10:27.533000	lat	lng	0.040771484375	-0.02587890625	1.09033203125	7.603053435114504	5.450381679389313	-98.9618320610687	0.0	0.0	0.0
2017-08-17 17:10:27.549886	lat	lng	0.038330078125	-0.0537109375	1.14794921875	4.244274809160306	6.870229007633588	-103.41984732824427	0.0	0.0	0.0
2017-08-17 17:10:27.566441	lat	lng	-0.009033203125	0.088134765625	0.986572265625	4.763358778625954	-2.595419847328244	-97.74045801526718	0.0	0.0	0.0
2017-08-17 17:10:27.586013	lat	lng	0.045166015625	-0.06787109375	1.100830078125	4.0	6.351145038167939	-108.90076335877863	0.0	0.0	0.0
2017-08-17 17:10:27.604187	lat	lng	0.034912109375	0.010498046875	1.14306640625	5.6183206106870225	-0.015267175572519083	-113.0381679389313	0.0	0.0	0.0
2017-08-17 17:10:27.620641	lat	lng	0.08740234375	0.065673828125	1.250732421875	4.702290076335878	8.396946564885496	-99.17557251908397	0.0	0.0	0.0
2017-08-17 17:10:27.637025	lat	lng	0.111572265625	-0.02294921875	1.095703125	3.480916030534351	5.709923664122138	-86.12213740458016	0.0	0.0	0.0
2017-08-17 17:10:27.653445	lat	lng	-0.02734375	-0.121826171875	0.860595703125	5.1603053435114505	-4.961832061068702	-78.18320610687023	0.0	0.0	0.0
2017-08-17 17:10:27.669896	lat	lng	-0.03466796875	-0.1376953125	0.908935546875	5.923664122137405	-0.7480916030534351	-79.63358778625954	0.0	0.0	0.0
2017-08-17 17:10:27.686358	lat	lng	0.001220703125	-0.261962890625	0.937744140625	3.1603053435114505	-5.1603053435114505	-67.5114503816794	0.0	0.0	0.0
2017-08-17 17:10:27.702892	lat	lng	-0.0478515625	-0.359375	0.9716796875	5.786259541984733	-1.0076335877862594	-41.98473282442748	0.0	0.0	0.0
2017-08-17 17:10:27.719287	lat	lng	-0.12841796875	-0.3056640625	1.00390625	3.4198473282442747	-0.7480916030534351	-11.038167938931299	0.0	0.0	0.0
2017-08-17 17:10:27.735823	lat	lng	-0.001953125	0.02978515625	1.025390625	2.2748091603053435	-1.786259541984733	6.412213740458015	0.0	0.0	0.0
2017-08-17 17:10:27.752194	lat	lng	-0.0400390625	0.0302734375	0.999267578125	2.687022900763359	-0.183206106870229	1.1755725190839694	0.0	0.0	0.0
2017-08-17 17:10:27.768685	lat	lng	-0.025146484375	0.012939453125	0.99462890625	2.7786259541984735	0.015267175572519083	0.7175572519083969	0.0	0.0	0.0
2017-08-17 17:10:27.785133	lat	lng	-0.027099609375	0.01171875	1.00390625	2.564885496183206	-0.13740458015267176	0.6412213740458015	0.0	0.0	0.0
2017-08-17 17:10:27.801466	lat	lng	-0.02294921875	0.012451171875	0.9716796875	2.381679389312977	0.030534351145038167	0.7480916030534351	0.0	0.0	0.0
2017-08-17 17:10:27.817845	lat	lng	-0.024658203125	0.01416015625	1.000732421875	3.068702290076336	3.8473282442748094	0.48854961832061067	0.0	0.0	0.0
2017-08-17 17:10:27.834347	lat	lng	-0.028564453125	0.012939453125	1.001953125	2.7022900763358777	0.2595419847328244	0.6717557251908397	0.0	0.0	0.0
2017-08-17 17:10:27.852972	lat	lng	-0.02685546875	0.013671875	0.99365234375	2.6106870229007635	-0.030534351145038167	0.6412213740458015	0.0	0.0	0.0
2017-08-17 17:10:27.870973	lat	lng	-0.02685546875	0.013427734375	1.009033203125	2.6259541984732824	-0.13740458015267176	0.6717557251908397	0.0	0.0	0.0
2017-08-17 17:10:27.889441	lat	lng	-0.0224609375	0.01708984375	0.9931640625	2.595419847328244	-0.1984732824427481	0.6106870229007634	0.0	0.0	0.0
2017-08-17 17:10:27.907939	lat	lng	-0.020751953125	0.01318359375	1.005126953125	2.6259541984732824	-0.22900763358778625	0.8854961832061069	0.0	0.0	0.0
2017-08-17 17:10:27.924616	lat	lng	-0.0283203125	0.01123046875	1.001220703125	2.687022900763359	-0.061068702290076333	0.8854961832061069	0.0	0.0	0.0
2017-08-17 17:10:27.941975	lat	lng	-0.0244140625	0.01171875	0.998046875	2.732824427480916	3.8931297709923665	0.5954198473282443	0.0	0.0	0.0
2017-08-17 17:10:27.958362	lat	lng	-0.0244140625	0.015380859375	0.993408203125	2.6564885496183206	-0.0916030534351145	0.6717557251908397	0.0	0.0	0.0
2017-08-17 17:10:27.974694	lat	lng	-0.024658203125	0.01318359375	1.002197265625	2.6717557251908395	-0.16793893129770993	0.8244274809160306	0.0	0.0	0.0
2017-08-17 17:10:27.991021	lat	lng	-0.023681640625	0.011962890625	1.004638671875	2.4122137404580153	-0.04580152671755725	0.6717557251908397	0.0	0.0	0.0
2017-08-17 17:10:28.007277	lat	lng	-0.02197265625	0.0126953125	1.005615234375	2.4122137404580153	-0.04580152671755725	0.7022900763358778	0.0	0.0	0.0
2017-08-17 17:10:28.023502	lat	lng	-0.0244140625	0.010498046875	1.000244140625	2.549618320610687	-0.183206106870229	0.732824427480916	0.0	0.0	0.0
2017-08-17 17:10:28.042227	lat	lng	-0.02099609375	0.0146484375	1.004150390625	2.7022900763358777	3.8931297709923665	0.5801526717557252	0.0	0.0	0.0
2017-08-17 17:10:28.062493	lat	lng	-0.0263671875	0.0068359375	1.00439453125	2.595419847328244	-0.3053435114503817	0.6106870229007634	0.0	0.0	0.0
2017-08-17 17:10:28.082798	lat	lng	-0.02685546875	0.014404296875	0.998046875	2.6259541984732824	-0.10687022900763359	0.7633587786259542	0.0	0.0	0.0
2017-08-17 17:10:28.103154	lat	lng	-0.0224609375	0.013671875	0.99560546875	2.6412213740458017	-3.8931297709923665	0.8396946564885496	0.0	0.0	0.0
2017-08-17 17:10:28.123407	lat	lng	-0.02294921875	0.00830078125	1.00048828125	2.427480916030534	-0.10687022900763359	0.6564885496183206	0.0	0.0	0.0
2017-08-17 17:10:28.143791	lat	lng	-0.027099609375	0.013916015625	0.996337890625	2.687022900763359	-0.10687022900763359	0.6259541984732825	0.0	0.0	0.0
2017-08-17 17:10:28.163966	lat	lng	-0.02490234375	0.01318359375	0.994873046875	2.366412213740458	-0.21374045801526717	0.7938931297709924	0.0	0.0	0.0
2017-08-17 17:10:28.184162	lat	lng	-0.0263671875	0.013916015625	1.001220703125	2.519083969465649	0.07633587786259542	0.7175572519083969	0.0	0.0	0.0
2017-08-17 17:10:28.204457	lat	lng	-0.02294921875	0.014404296875	0.999755859375	2.6717557251908395	-0.0916030534351145	0.7480916030534351	0.0	0.0	0.0
2017-08-17 17:10:28.224656	lat	lng	-0.028076171875	0.0126953125	0.99755859375	2.7022900763358777	-0.12213740458015267	0.7175572519083969	0.0	0.0	0.0
2017-08-17 17:10:28.244829	lat	lng	-0.024169921875	0.01123046875	1.00830078125	2.885496183206107	0.04580152671755725	0.6717557251908397	0.0	0.0	0.0
2017-08-17 17:10:28.265148	lat	lng	-0.027099609375	0.012939453125	1.00537109375	2.4580152671755724	-0.16793893129770993	0.6259541984732825	0.0	0.0	0.0
2017-08-17 17:10:28.285725	lat	lng	-0.03125	0.0107421875	0.998779296875	2.5801526717557253	-0.0916030534351145	0.6412213740458015	0.0	0.0	0.0
2017-08-17 17:10:28.313906	lat	lng	-0.02734375	0.009033203125	1.001220703125	2.6106870229007635	0.0916030534351145	0.7633587786259542	0.0	0.0	0.0
2017-08-17 17:10:28.348469	lat	lng	-0.028076171875	0.010986328125	1.003662109375	2.549618320610687	-0.3816793893129771	0.549618320610687	0.0	0.0	0.0
2017-08-17 17:10:28.369294	lat	lng	0.03076171875	-0.403564453125	0.814453125	-7.221374045801527	-4.1679389312977095	173.6946564885496	0.0	0.0	0.0
2017-08-17 17:10:28.395407	lat	lng	0.105712890625	-0.0986328125	0.9365234375	-0.33587786259541985	-0.5038167938931297	153.70992366412213	0.0	0.0	0.0
2017-08-17 17:10:28.428164	lat	lng	-0.07568359375	0.220458984375	0.98046875	-2.4580152671755724	6.824427480916031	170.93129770992365	0.0	0.0	0.0
2017-08-17 17:10:28.449269	lat	lng	-0.101806640625	0.322509765625	0.815673828125	-2.198473282442748	-3.1297709923664123	138.45801526717557	0.0	0.0	0.0
2017-08-17 17:10:28.471929	lat	lng	-0.111572265625	0.342529296875	0.871337890625	-1.2213740458015268	-3.6946564885496183	85.5114503816794	0.0	0.0	0.0
2017-08-17 17:10:28.498147	lat	lng	-0.1435546875	-0.19140625	1.103271484375	-2.4580152671755724	9.068702290076336	192.82442748091603	0.0	0.0	0.0
2017-08-17 17:10:28.519449	lat	lng	0.21240234375	-0.4638671875	1.1533203125	0.1984732824427481	29.419847328244273	220.5801526717557	0.0	0.0	0.0
2017-08-17 17:10:28.539920	lat	lng	0.30322265625	-0.49267578125	0.8798828125	20.748091603053435	42.091603053435115	179.6793893129771	0.0	0.0	0.0
2017-08-17 17:10:28.556623	lat	lng	0.17822265625	-0.364013671875	0.506591796875	19.0381679389313	-41.43511450381679	127.69465648854961	0.0	0.0	0.0
2017-08-17 17:10:28.573390	lat	lng	0.27587890625	-0.195556640625	1.947265625	-80.85496183206106	-31.87786259541985	127.6793893129771	0.0	0.0	0.0
2017-08-17 17:10:28.591905	lat	lng	-0.0859375	0.241943359375	1.0888671875	5.083969465648855	-0.32061068702290074	105.41984732824427	0.0	0.0	0.0
2017-08-17 17:10:28.609926	lat	lng	-0.026123046875	0.524169921875	0.966064453125	-0.030534351145038167	3.6030534351145036	103.0381679389313	0.0	0.0	0.0
2017-08-17 17:10:28.627136	lat	lng	-0.0234375	0.195556640625	0.953857421875	-1.450381679389313	-0.9923664122137404	133.8320610687023	0.0	0.0	0.0
2017-08-17 17:10:28.644099	lat	lng	-0.0546875	-0.029296875	1.08447265625	-3.2977099236641223	1.6030534351145038	219.23664122137404	0.0	0.0	0.0
2017-08-17 17:10:28.662821	lat	lng	0.155029296875	-0.18359375	0.983642578125	-2.33587786259542	-4.2748091603053435	225.87786259541986	0.0	0.0	0.0
2017-08-17 17:10:28.680934	lat	lng	0.367919921875	-0.18505859375	0.9951171875	0.33587786259541985	-0.7786259541984732	163.4198473282443	0.0	0.0	0.0
2017-08-17 17:10:28.702194	lat	lng	0.00537109375	-0.002685546875	0.97509765625	1.786259541984733	-3.404580152671756	114.58015267175573	0.0	0.0	0.0
2017-08-17 17:10:28.720357	lat	lng	-0.012451171875	-0.024658203125	1.192138671875	-3.068702290076336	6.763358778625954	138.01526717557252	0.0	0.0	0.0
2017-08-17 17:10:28.737707	lat	lng	-0.12841796875	0.22509765625	1.15966796875	-3.572519083969466	-7.8320610687022905	166.24427480916032	0.0	0.0	0.0
2017-08-17 17:10:28.754823	lat	lng	-0.12744140625	-0.035888671875	0.930908203125	-1.7709923664122138	-5.022900763358779	189.206106870229	0.0	0.0	0.0
2017-08-17 17:10:28.772439	lat	lng	-0.067626953125	-0.1240234375	1.025146484375	-1.4045801526717556	-1.0076335877862594	212.61068702290078	0.0	0.0	0.0
2017-08-17 17:10:28.789476	lat	lng	0.181884765625	0.1005859375	1.03662109375	-3.5572519083969465	1.8015267175572518	186.13740458015266	0.0	0.0	0.0
2017-08-17 17:10:28.807557	lat	lng	0.0673828125	0.199951171875	0.93310546875	-3.7709923664122136	-5.282442748091603	128.9770992366412	0.0	0.0	0.0
2017-08-17 17:10:28.825556	lat	lng	-0.050048828125	0.3193359375	1.0009765625	-4.99236641221374	-2.6106870229007635	118.65648854961832	0.0	0.0	0.0
2017-08-17 17:10:28.846050	lat	lng	-0.0068359375	-0.026611328125	0.76708984375	-3.114503816793893	-11.541984732824428	139.05343511450383	0.0	0.0	0.0
2017-08-17 17:10:28.863484	lat	lng	0.03466796875	-0.071044921875	0.82861328125	-3.786259541984733	-6.656488549618321	149.75572519083968	0.0	0.0	0.0
2017-08-17 17:10:28.880922	lat	lng	-0.021240234375	0.182861328125	1.01416015625	-7.374045801526718	-4.67175572519084	159.87786259541986	0.0	0.0	0.0
2017-08-17 17:10:28.898393	lat	lng	0.013427734375	0.0205078125	1.12890625	-0.8244274809160306	2.4427480916030535	176.74809160305344	0.0	0.0	0.0
2017-08-17 17:10:28.915915	lat	lng	0.007568359375	-0.018798828125	0.753173828125	0.3816793893129771	-7.511450381679389	172.25954198473283	0.0	0.0	0.0
2017-08-17 17:10:28.933399	lat	lng	0.1103515625	0.028076171875	0.96728515625	3.0381679389312977	2.2442748091603053	136.13740458015266	0.0	0.0	0.0
2017-08-17 17:10:28.950962	lat	lng	0.029541015625	0.087646484375	1.08935546875	-0.3053435114503817	1.5877862595419847	119.23664122137404	0.0	0.0	0.0
2017-08-17 17:10:28.968457	lat	lng	-0.113525390625	0.049560546875	0.97900390625	-0.6564885496183206	-4.809160305343512	108.87022900763358	0.0	0.0	0.0
2017-08-17 17:10:28.986066	lat	lng	0.068359375	-0.002197265625	0.978271484375	-0.5343511450381679	-4.8396946564885495	115.06870229007633	0.0	0.0	0.0
2017-08-17 17:10:29.003994	lat	lng	0.17236328125	0.08935546875	0.992431640625	1.1755725190839694	-1.5572519083969465	115.83206106870229	0.0	0.0	0.0
2017-08-17 17:10:29.026236	lat	lng	0.017333984375	-0.00927734375	1.1220703125	-0.9465648854961832	-3.83206106870229	112.80916030534351	0.0	0.0	0.0
2017-08-17 17:10:29.048297	lat	lng	-0.035400390625	-0.089111328125	0.96337890625	-0.549618320610687	0.9618320610687023	111.25190839694656	0.0	0.0	0.0
2017-08-17 17:10:29.070294	lat	lng	0.04931640625	-0.279052734375	0.98828125	2.8244274809160306	-1.9541984732824427	112.87022900763358	0.0	0.0	0.0
2017-08-17 17:10:29.092218	lat	lng	0.05712890625	0.21240234375	1.013427734375	0.22900763358778625	-1.0229007633587786	91.1145038167939	0.0	0.0	0.0
2017-08-17 17:10:29.115771	lat	lng	0.065673828125	0.4892578125	0.99755859375	-0.6717557251908397	-1.816793893129771	82.90076335877863	0.0	0.0	0.0
2017-08-17 17:10:29.137880	lat	lng	-0.044189453125	0.037109375	0.995849609375	3.3435114503816794	-4.488549618320611	98.93129770992367	0.0	0.0	0.0
2017-08-17 17:10:29.159918	lat	lng	-0.031982421875	0.0673828125	1.073486328125	-2.33587786259542	-1.816793893129771	131.29770992366412	0.0	0.0	0.0
2017-08-17 17:10:29.181832	lat	lng	0.00927734375	-0.044921875	0.8583984375	1.2061068702290076	-2.015267175572519	128.8091603053435	0.0	0.0	0.0
2017-08-17 17:10:29.203869	lat	lng	0.035400390625	0.21337890625	0.89453125	1.4045801526717556	-7.923664122137405	109.40458015267176	0.0	0.0	0.0
2017-08-17 17:10:29.225819	lat	lng	-0.027099609375	0.197509765625	0.99951171875	1.1755725190839694	-0.24427480916030533	86.93129770992367	0.0	0.0	0.0
2017-08-17 17:10:29.248016	lat	lng	-0.025390625	0.166259765625	1.00537109375	1.8778625954198473	1.5267175572519085	77.25190839694656	0.0	0.0	0.0
2017-08-17 17:10:29.270078	lat	lng	-0.000244140625	0.038818359375	0.972412109375	0.9618320610687023	-0.9618320610687023	92.51908396946565	0.0	0.0	0.0
2017-08-17 17:10:29.291967	lat	lng	-0.02099609375	-0.32080078125	1.022216796875	2.122137404580153	0.3816793893129771	106.53435114503817	0.0	0.0	0.0
2017-08-17 17:10:29.313879	lat	lng	0.0078125	-0.464599609375	0.980712890625	-0.9618320610687023	-1.9541984732824427	96.12213740458016	0.0	0.0	0.0
2017-08-17 17:10:29.336119	lat	lng	0.101318359375	-0.031005859375	0.999267578125	-1.1755725190839694	1.6946564885496183	99.6030534351145	0.0	0.0	0.0
2017-08-17 17:10:29.358173	lat	lng	0.040283203125	0.177978515625	1.055908203125	-3.8473282442748094	-1.984732824427481	83.20610687022901	0.0	0.0	0.0
2017-08-17 17:10:29.380353	lat	lng	0.0478515625	0.294677734375	1.058349609375	1.4198473282442747	-4.2748091603053435	72.3969465648855	0.0	0.0	0.0
2017-08-17 17:10:29.402247	lat	lng	-0.02978515625	0.0283203125	1.066162109375	1.1755725190839694	0.7786259541984732	70.7175572519084	0.0	0.0	0.0
2017-08-17 17:10:29.423789	lat	lng	-0.033935546875	-0.051513671875	1.0634765625	1.6946564885496183	1.5267175572519085	87.72519083969466	0.0	0.0	0.0
2017-08-17 17:10:29.444762	lat	lng	-0.125	0.021484375	1.01953125	2.9618320610687023	1.7709923664122138	93.6793893129771	0.0	0.0	0.0
2017-08-17 17:10:29.465127	lat	lng	-0.002685546875	0.2646484375	0.95751953125	1.3282442748091603	-0.8091603053435115	70.4885496183206	0.0	0.0	0.0
2017-08-17 17:10:29.485519	lat	lng	0.01806640625	-0.02587890625	0.988525390625	0.7633587786259542	-3.6030534351145036	50.717557251908396	0.0	0.0	0.0
2017-08-17 17:10:29.505882	lat	lng	0.168701171875	0.091064453125	1.06689453125	2.50381679389313	1.0229007633587786	36.396946564885496	0.0	0.0	0.0
2017-08-17 17:10:29.526419	lat	lng	0.0791015625	-0.059326171875	1.0478515625	-3.786259541984733	0.3053435114503817	31.404580152671755	0.0	0.0	0.0
2017-08-17 17:10:29.546835	lat	lng	-0.01904296875	0.00146484375	0.97900390625	1.7557251908396947	6.366412213740458	60.534351145038165	0.0	0.0	0.0
2017-08-17 17:10:29.567805	lat	lng	-0.037109375	-0.0986328125	1.043212890625	-0.32061068702290074	2.2900763358778624	108.10687022900764	0.0	0.0	0.0
2017-08-17 17:10:29.589926	lat	lng	0.0029296875	0.00341796875	1.05859375	0.21374045801526717	1.2366412213740459	113.57251908396947	0.0	0.0	0.0
2017-08-17 17:10:29.613931	lat	lng	0.027587890625	0.235107421875	0.929443359375	2.7480916030534353	-5.893129770992366	81.20610687022901	0.0	0.0	0.0
2017-08-17 17:10:29.635983	lat	lng	0.142333984375	0.144775390625	0.973876953125	2.4427480916030535	1.2213740458015268	51.786259541984734	0.0	0.0	0.0
2017-08-17 17:10:29.661550	lat	lng	0.033935546875	0.178955078125	0.995361328125	2.427480916030534	1.1297709923664123	56.0	0.0	0.0	0.0
2017-08-17 17:10:29.682621	lat	lng	0.109130859375	-0.121826171875	1.161376953125	-0.6106870229007634	0.7938931297709924	73.3587786259542	0.0	0.0	0.0
2017-08-17 17:10:29.704238	lat	lng	-0.019775390625	-0.0107421875	1.07421875	-0.44274809160305345	1.1450381679389312	89.92366412213741	0.0	0.0	0.0
2017-08-17 17:10:29.726411	lat	lng	0.016357421875	0.24169921875	1.21044921875	-0.9923664122137404	6.259541984732825	81.6030534351145	0.0	0.0	0.0
2017-08-17 17:10:29.748163	lat	lng	-0.0830078125	0.1572265625	1.077392578125	-0.366412213740458	-6.916030534351145	99.32824427480917	0.0	0.0	0.0
2017-08-17 17:10:29.771976	lat	lng	0.06689453125	0.35693359375	1.002685546875	-0.5954198473282443	-2.122137404580153	63.20610687022901	0.0	0.0	0.0
2017-08-17 17:10:29.792897	lat	lng	0.108154296875	0.143310546875	1.027099609375	3.9389312977099236	1.3435114503816794	32.091603053435115	0.0	0.0	0.0
2017-08-17 17:10:29.819124	lat	lng	0.00390625	-0.19677734375	0.9755859375	2.900763358778626	0.0	43.17557251908397	0.0	0.0	0.0
2017-08-17 17:10:29.842644	lat	lng	-0.049072265625	-0.0166015625	0.96630859375	1.618320610687023	-2.2595419847328246	54.79389312977099	0.0	0.0	0.0
2017-08-17 17:10:29.865868	lat	lng	0.03857421875	0.217041015625	1.013916015625	1.2061068702290076	-3.8473282442748094	54.70229007633588	0.0	0.0	0.0
2017-08-17 17:10:29.889981	lat	lng	0.138916015625	0.29638671875	0.9921875	2.381679389312977	0.4122137404580153	0.5343511450381679	0.0	0.0	0.0
2017-08-17 17:10:29.913510	lat	lng	0.001953125	0.0283203125	1.004638671875	2.564885496183206	-0.16793893129770993	0.6259541984732825	0.0	0.0	0.0
2017-08-17 17:10:29.938345	lat	lng	0.00341796875	0.03173828125	1.0029296875	2.5801526717557253	-0.12213740458015267	0.9465648854961832	0.0	0.0	0.0
2017-08-17 17:10:29.962533	lat	lng	0.0068359375	0.030029296875	1.002685546875	2.717557251908397	-0.030534351145038167	0.9007633587786259	0.0	0.0	0.0
2017-08-17 17:10:29.985641	lat	lng	0.004638671875	0.03369140625	0.99951171875	2.763358778625954	0.015267175572519083	0.9312977099236641	0.0	0.0	0.0
2017-08-17 17:10:30.006918	lat	lng	0.0048828125	0.028564453125	1.025146484375	2.5343511450381677	-0.061068702290076333	0.7786259541984732	0.0	0.0	0.0
2017-08-17 17:10:30.027613	lat	lng	0.00537109375	0.03271484375	0.995849609375	2.7480916030534353	-0.030534351145038167	0.9007633587786259	0.0	0.0	0.0
2017-08-17 17:10:30.049977	lat	lng	0.001953125	0.029541015625	1.001708984375	2.366412213740458	-0.0916030534351145	0.7633587786259542	0.0	0.0	0.0
2017-08-17 17:10:30.071496	lat	lng	0.00390625	0.031494140625	0.99755859375	2.6717557251908395	0.10687022900763359	0.7786259541984732	0.0	0.0	0.0
2017-08-17 17:10:30.094325	lat	lng	0.004150390625	0.027587890625	1.001220703125	2.381679389312977	-0.10687022900763359	0.8396946564885496	0.0	0.0	0.0
2017-08-17 17:10:30.119505	lat	lng	0.00634765625	0.030517578125	1.001708984375	2.427480916030534	-0.12213740458015267	0.732824427480916	0.0	0.0	0.0
2017-08-17 17:10:30.142347	lat	lng	0.002685546875	0.026611328125	0.998046875	2.5343511450381677	-0.061068702290076333	0.8244274809160306	0.0	0.0	0.0
2017-08-17 17:10:30.166036	lat	lng	0.00244140625	0.03369140625	0.99462890625	2.50381679389313	0.04580152671755725	0.7786259541984732	0.0	0.0	0.0
2017-08-17 17:10:30.188152	lat	lng	0.007080078125	0.030029296875	1.00537109375	2.366412213740458	0.0	0.916030534351145	0.0	0.0	0.0
2017-08-17 17:10:30.210357	lat	lng	0.00390625	0.0322265625	1.001953125	2.6259541984732824	-0.0916030534351145	0.8091603053435115	0.0	0.0	0.0
2017-08-17 17:10:30.232260	lat	lng	0.003662109375	0.0322265625	1.004150390625	2.5801526717557253	-0.22900763358778625	0.8549618320610687	0.0	0.0	0.0
2017-08-17 17:10:30.254628	lat	lng	0.00390625	0.033203125	1.00341796875	2.6564885496183206	3.8931297709923665	0.7786259541984732	0.0	0.0	0.0
2017-08-17 17:10:30.276684	lat	lng	0.007080078125	0.062255859375	0.99755859375	2.2748091603053435	-0.4580152671755725	0.7175572519083969	0.0	0.0	0.0
2017-08-17 17:10:30.298782	lat	lng	0.002197265625	0.028076171875	0.999755859375	2.549618320610687	0.0916030534351145	0.7175572519083969	0.0	0.0	0.0
2017-08-17 17:10:30.320739	lat	lng	0.0068359375	0.030517578125	0.99853515625	2.7786259541984735	-0.0916030534351145	1.0076335877862594	0.0	0.0	0.0
2017-08-17 17:10:30.342922	lat	lng	0.004638671875	0.02978515625	1.0078125	2.6106870229007635	-0.07633587786259542	0.916030534351145	0.0	0.0	0.0
2017-08-17 17:10:30.364864	lat	lng	0.001220703125	0.02783203125	1.0009765625	2.7938931297709924	0.061068702290076333	0.6259541984732825	0.0	0.0	0.0
2017-08-17 17:10:30.386906	lat	lng	0.0009765625	0.031494140625	1.000244140625	2.6412213740458017	-3.9083969465648853	1.099236641221374	0.0	0.0	0.0
2017-08-17 17:10:30.408934	lat	lng	0.00439453125	0.033447265625	1.00244140625	2.687022900763359	0.07633587786259542	0.6564885496183206	0.0	0.0	0.0
2017-08-17 17:10:30.431012	lat	lng	0.003662109375	0.03173828125	1.0029296875	2.6564885496183206	-0.15267175572519084	0.6870229007633588	0.0	0.0	0.0
2017-08-17 17:10:30.453101	lat	lng	0.003662109375	0.03125	0.998291015625	2.4122137404580153	0.1984732824427481	0.8396946564885496	0.0	0.0	0.0
2017-08-17 17:10:30.475124	lat	lng	0.00439453125	0.0322265625	1.0	2.4427480916030535	-0.061068702290076333	0.7633587786259542	0.0	0.0	0.0
2017-08-17 17:10:30.497132	lat	lng	0.00634765625	0.0322265625	0.99462890625	2.7786259541984735	-3.8931297709923665	0.9312977099236641	0.0	0.0	0.0
2017-08-17 17:10:30.519219	lat	lng	-0.000244140625	0.02734375	1.001708984375	2.3053435114503817	0.2748091603053435	0.9007633587786259	0.0	0.0	0.0
2017-08-17 17:10:30.541231	lat	lng	0.00634765625	0.033203125	1.0	2.7022900763358777	-0.1984732824427481	0.9618320610687023	0.0	0.0	0.0
2017-08-17 17:10:30.563288	lat	lng	-0.001708984375	0.033447265625	1.001708984375	2.595419847328244	0.12213740458015267	0.8702290076335878	0.0	0.0	0.0
2017-08-17 17:10:30.585436	lat	lng	0.001953125	0.003662109375	0.993408203125	2.732824427480916	-0.16793893129770993	0.8396946564885496	0.0	0.0	0.0
2017-08-17 17:10:30.608576	lat	lng	0.007568359375	0.032958984375	1.000732421875	2.4122137404580153	-0.10687022900763359	0.7633587786259542	0.0	0.0	0.0
2017-08-17 17:10:30.630661	lat	lng	0.007568359375	0.031982421875	0.996337890625	2.5343511450381677	0.13740458015267176	0.8091603053435115	0.0	0.0	0.0
2017-08-17 17:10:30.652920	lat	lng	0.003662109375	0.033447265625	1.0068359375	2.564885496183206	-0.3511450381679389	0.8091603053435115	0.0	0.0	0.0
2017-08-17 17:10:30.675030	lat	lng	0.003173828125	0.03076171875	0.98974609375	2.427480916030534	-0.030534351145038167	0.916030534351145	0.0	0.0	0.0
2017-08-17 17:10:30.697236	lat	lng	0.00244140625	0.030517578125	1.000732421875	2.595419847328244	0.12213740458015267	0.6412213740458015	0.0	0.0	0.0
2017-08-17 17:10:30.719488	lat	lng	0.005126953125	0.03173828125	1.00537109375	2.3969465648854964	0.030534351145038167	0.8091603053435115	0.0	0.0	0.0
2017-08-17 17:10:30.741552	lat	lng	0.00537109375	0.02490234375	1.0	2.5343511450381677	-0.07633587786259542	0.6717557251908397	0.0	0.0	0.0
2017-08-17 17:10:30.763481	lat	lng	0.007568359375	0.000244140625	0.994140625	2.5343511450381677	-0.22900763358778625	0.8091603053435115	0.0	0.0	0.0
2017-08-17 17:10:30.785614	lat	lng	0.005615234375	0.035400390625	0.999267578125	2.4885496183206106	0.15267175572519084	0.6259541984732825	0.0	0.0	0.0
2017-08-17 17:10:30.808016	lat	lng	0.007080078125	0.030029296875	1.0048828125	2.4885496183206106	-0.10687022900763359	0.7938931297709924	0.0	0.0	0.0
2017-08-17 17:10:30.830084	lat	lng	0.0029296875	0.02783203125	1.008056640625	2.5343511450381677	-0.07633587786259542	0.8091603053435115	0.0	0.0	0.0
2017-08-17 17:10:30.851978	lat	lng	0.006591796875	0.027099609375	0.997802734375	2.4885496183206106	-0.22900763358778625	0.9618320610687023	0.0	0.0	0.0
2017-08-17 17:10:30.874121	lat	lng	0.004638671875	0.03173828125	0.997802734375	2.564885496183206	-0.12213740458015267	0.5954198473282443	0.0	0.0	0.0
2017-08-17 17:10:30.898910	lat	lng	0.004638671875	0.02978515625	0.99462890625	2.549618320610687	-0.2595419847328244	0.9465648854961832	0.0	0.0	0.0
2017-08-17 17:10:30.921934	lat	lng	0.00439453125	0.031494140625	0.997802734375	2.519083969465649	-0.12213740458015267	0.7175572519083969	0.0	0.0	0.0
2017-08-17 17:10:30.945898	lat	lng	0.0009765625	0.03076171875	1.001953125	2.687022900763359	0.0	0.7786259541984732	0.0	0.0	0.0
2017-08-17 17:10:30.970507	lat	lng	0.00537109375	0.028564453125	0.99658203125	2.4580152671755724	3.8931297709923665	0.7786259541984732	0.0	0.0	0.0
2017-08-17 17:10:30.991505	lat	lng	0.004638671875	0.029052734375	0.99853515625	2.519083969465649	-0.061068702290076333	0.6106870229007634	0.0	0.0	0.0
2017-08-17 17:10:31.013508	lat	lng	0.007080078125	0.03076171875	1.00146484375	2.549618320610687	-0.13740458015267176	0.7633587786259542	0.0	0.0	0.0
2017-08-17 17:10:31.035194	lat	lng	0.006103515625	0.030517578125	1.029296875	2.7022900763358777	-0.061068702290076333	0.7175572519083969	0.0	0.0	0.0
2017-08-17 17:10:31.056701	lat	lng	0.0048828125	0.033447265625	1.002197265625	2.4885496183206106	-0.22900763358778625	0.7938931297709924	0.0	0.0	0.0
2017-08-17 17:10:31.079932	lat	lng	0.007080078125	0.02734375	0.993896484375	2.564885496183206	0.04580152671755725	0.8244274809160306	0.0	0.0	0.0
2017-08-17 17:10:31.101743	lat	lng	0.003662109375	0.03125	1.002685546875	2.6106870229007635	-0.1984732824427481	0.8396946564885496	0.0	0.0	0.0
2017-08-17 17:10:31.123487	lat	lng	0.0068359375	0.033203125	0.99560546875	2.687022900763359	-0.07633587786259542	0.8244274809160306	0.0	0.0	0.0
2017-08-17 17:10:31.144871	lat	lng	-0.0009765625	0.027587890625	1.00537109375	2.595419847328244	-0.13740458015267176	0.5648854961832062	0.0	0.0	0.0
2017-08-17 17:10:31.166818	lat	lng	0.00390625	0.034423828125	1.004150390625	2.6106870229007635	-0.15267175572519084	0.7938931297709924	0.0	0.0	0.0
2017-08-17 17:10:31.187919	lat	lng	0.00341796875	0.027587890625	1.0	2.6412213740458017	3.8625954198473282	0.8091603053435115	0.0	0.0	0.0
2017-08-17 17:10:31.209465	lat	lng	0.006591796875	0.03271484375	0.9951171875	2.549618320610687	-0.10687022900763359	0.8091603053435115	0.0	0.0	0.0
2017-08-17 17:10:31.232402	lat	lng	0.000732421875	0.03515625	0.99951171875	2.6412213740458017	-0.04580152671755725	0.8244274809160306	0.0	0.0	0.0
2017-08-17 17:10:31.253070	lat	lng	0.0068359375	0.03173828125	0.99658203125	2.8244274809160306	0.015267175572519083	0.8091603053435115	0.0	0.0	0.0
2017-08-17 17:10:31.274647	lat	lng	0.00732421875	0.0615234375	1.007080078125	2.8396946564885495	-0.12213740458015267	0.8854961832061069	0.0	0.0	0.0
2017-08-17 17:10:31.295859	lat	lng	0.002685546875	0.02880859375	0.998779296875	2.549618320610687	0.015267175572519083	0.6259541984732825	0.0	0.0	0.0
2017-08-17 17:10:31.317726	lat	lng	0.005126953125	0.0302734375	1.001220703125	2.50381679389313	0.04580152671755725	0.5038167938931297	0.0	0.0	0.0
2017-08-17 17:10:31.375274	lat	lng	0.001953125	0.0302734375	0.99609375	2.3053435114503817	-0.15267175572519084	0.8244274809160306	0.0	0.0	0.0
2017-08-17 17:10:31.398691	lat	lng	0.00244140625	0.03076171875	0.971435546875	2.4732824427480917	-0.0916030534351145	0.5801526717557252	0.0	0.0	0.0
2017-08-17 17:10:31.420108	lat	lng	0.00537109375	0.025634765625	1.001708984375	2.5343511450381677	-0.10687022900763359	0.9312977099236641	0.0	0.0	0.0
2017-08-17 17:10:31.444574	lat	lng	0.004150390625	0.03271484375	1.00146484375	2.519083969465649	0.030534351145038167	0.9312977099236641	0.0	0.0	0.0
2017-08-17 17:10:31.466961	lat	lng	0.005126953125	0.00146484375	1.00146484375	2.427480916030534	-0.1984732824427481	0.9312977099236641	0.0	0.0	0.0
2017-08-17 17:10:31.489420	lat	lng	0.00634765625	0.03076171875	0.994140625	2.732824427480916	-3.9083969465648853	0.7022900763358778	0.0	0.0	0.0
2017-08-17 17:10:31.512122	lat	lng	0.004150390625	0.029541015625	0.997802734375	2.519083969465649	0.04580152671755725	0.9312977099236641	0.0	0.0	0.0
2017-08-17 17:10:31.533614	lat	lng	0.005126953125	0.0322265625	1.003173828125	2.427480916030534	0.07633587786259542	0.7175572519083969	0.0	0.0	0.0
2017-08-17 17:10:31.557236	lat	lng	0.006591796875	0.02880859375	1.002197265625	2.427480916030534	-0.21374045801526717	0.7938931297709924	0.0	0.0	0.0
2017-08-17 17:10:31.579218	lat	lng	0.006103515625	0.032470703125	1.002197265625	2.6106870229007635	3.877862595419847	0.8091603053435115	0.0	0.0	0.0
2017-08-17 17:10:31.601324	lat	lng	0.00244140625	0.031005859375	0.996826171875	2.3206106870229006	-0.07633587786259542	0.916030534351145	0.0	0.0	0.0
2017-08-17 17:10:31.624386	lat	lng	0.0048828125	0.029052734375	0.998291015625	2.6259541984732824	-0.07633587786259542	0.8396946564885496	0.0	0.0	0.0
2017-08-17 17:10:31.647494	lat	lng	0.00537109375	0.032958984375	0.99462890625	2.6412213740458017	0.13740458015267176	0.48854961832061067	0.0	0.0	0.0
2017-08-17 17:10:31.671636	lat	lng	0.01025390625	0.0302734375	1.00634765625	2.595419847328244	-0.0916030534351145	0.6106870229007634	0.0	0.0	0.0
2017-08-17 17:10:31.692089	lat	lng	0.005615234375	0.02978515625	0.9970703125	2.8091603053435112	0.24427480916030533	0.9312977099236641	0.0	0.0	0.0
2017-08-17 17:10:31.712329	lat	lng	0.005126953125	0.060791015625	1.0029296875	2.4580152671755724	-0.04580152671755725	0.732824427480916	0.0	0.0	0.0
2017-08-17 17:10:31.732581	lat	lng	0.00634765625	0.027587890625	0.998779296875	2.564885496183206	-0.16793893129770993	0.9923664122137404	0.0	0.0	0.0
2017-08-17 17:10:31.752868	lat	lng	0.000732421875	0.0302734375	0.99560546875	2.7480916030534353	0.0	0.7480916030534351	0.0	0.0	0.0
2017-08-17 17:10:31.773191	lat	lng	0.005859375	0.029052734375	0.99365234375	2.4885496183206106	-0.030534351145038167	0.8854961832061069	0.0	0.0	0.0
2017-08-17 17:10:31.795006	lat	lng	0.00732421875	0.031005859375	1.00537109375	2.50381679389313	-0.22900763358778625	0.8244274809160306	0.0	0.0	0.0
2017-08-17 17:10:31.817290	lat	lng	0.0078125	0.031005859375	1.000732421875	2.8091603053435112	-0.183206106870229	0.8091603053435115	0.0	0.0	0.0
2017-08-17 17:10:31.839735	lat	lng	0.00341796875	0.030029296875	0.99853515625	2.50381679389313	-3.9083969465648853	0.6106870229007634	0.0	0.0	0.0
2017-08-17 17:10:31.861793	lat	lng	0.005615234375	0.029541015625	0.9970703125	2.4885496183206106	-3.8931297709923665	0.8396946564885496	0.0	0.0	0.0
2017-08-17 17:10:31.883930	lat	lng	0.001953125	0.030517578125	1.000732421875	2.7786259541984735	-0.3053435114503817	0.7633587786259542	0.0	0.0	0.0
2017-08-17 17:10:31.906212	lat	lng	0.01025390625	0.03076171875	1.005615234375	2.3969465648854964	-0.22900763358778625	0.8854961832061069	0.0	0.0	0.0
2017-08-17 17:10:31.927427	lat	lng	0.003662109375	0.0302734375	0.9951171875	2.5801526717557253	3.877862595419847	0.8396946564885496	0.0	0.0	0.0
2017-08-17 17:10:31.949006	lat	lng	-0.000244140625	0.03564453125	0.9990234375	2.5801526717557253	-3.877862595419847	0.9312977099236641	0.0	0.0	0.0
2017-08-17 17:10:31.969588	lat	lng	0.0048828125	0.029052734375	1.00927734375	2.4122137404580153	-0.24427480916030533	0.7938931297709924	0.0	0.0	0.0
2017-08-17 17:10:31.990168	lat	lng	0.00390625	0.0322265625	0.999755859375	2.50381679389313	0.015267175572519083	0.7175572519083969	0.0	0.0	0.0
2017-08-17 17:10:32.011170	lat	lng	0.00146484375	0.03369140625	1.000244140625	2.519083969465649	0.015267175572519083	0.9312977099236641	0.0	0.0	0.0
2017-08-17 17:10:32.032122	lat	lng	0.000732421875	0.034423828125	1.0048828125	2.717557251908397	0.1984732824427481	0.8396946564885496	0.0	0.0	0.0
2017-08-17 17:10:32.052573	lat	lng	0.0029296875	0.032470703125	1.00634765625	2.4732824427480917	-0.13740458015267176	0.732824427480916	0.0	0.0	0.0
2017-08-17 17:10:32.073080	lat	lng	0.007080078125	0.03076171875	0.9970703125	2.687022900763359	-0.366412213740458	0.6259541984732825	0.0	0.0	0.0
2017-08-17 17:10:32.093603	lat	lng	0.004638671875	0.027587890625	0.96923828125	2.885496183206107	-0.16793893129770993	0.8854961832061069	0.0	0.0	0.0
2017-08-17 17:10:32.114461	lat	lng	0.005859375	0.02978515625	1.0068359375	2.5801526717557253	-0.04580152671755725	1.099236641221374	0.0	0.0	0.0
2017-08-17 17:10:32.135025	lat	lng	0.002685546875	0.03271484375	1.00390625	2.3206106870229006	-0.07633587786259542	0.7938931297709924	0.0	0.0	0.0
2017-08-17 17:10:32.155660	lat	lng	0.005859375	0.032470703125	0.99951171875	2.6412213740458017	0.030534351145038167	0.9770992366412213	0.0	0.0	0.0
2017-08-17 17:10:32.176292	lat	lng	0.009033203125	0.031982421875	1.001220703125	2.4885496183206106	-0.3053435114503817	0.7175572519083969	0.0	0.0	0.0
2017-08-17 17:10:32.196913	lat	lng	0.0029296875	0.028076171875	1.004638671875	2.4427480916030535	-0.16793893129770993	0.7480916030534351	0.0	0.0	0.0
2017-08-17 17:10:32.217647	lat	lng	0.0029296875	0.029052734375	1.001708984375	2.7480916030534353	-0.030534351145038167	0.9007633587786259	0.0	0.0	0.0
2017-08-17 17:10:32.237936	lat	lng	0.005615234375	0.031005859375	1.004150390625	2.6412213740458017	-0.07633587786259542	0.8702290076335878	0.0	0.0	0.0
2017-08-17 17:10:32.259070	lat	lng	0.005859375	0.032470703125	1.031005859375	2.6106870229007635	-0.061068702290076333	0.8549618320610687	0.0	0.0	0.0
2017-08-17 17:10:32.280146	lat	lng	0.007568359375	0.029541015625	0.999755859375	2.427480916030534	-0.04580152671755725	0.8244274809160306	0.0	0.0	0.0
2017-08-17 17:10:32.301641	lat	lng	0.004638671875	0.02978515625	0.996337890625	2.595419847328244	-0.061068702290076333	0.9465648854961832	0.0	0.0	0.0
2017-08-17 17:10:32.323572	lat	lng	0.00439453125	0.032958984375	1.005126953125	2.7786259541984735	0.030534351145038167	0.5954198473282443	0.0	0.0	0.0
2017-08-17 17:10:32.345476	lat	lng	0.004638671875	0.030517578125	1.003662109375	2.4427480916030535	-0.015267175572519083	0.7022900763358778	0.0	0.0	0.0
2017-08-17 17:10:32.368590	lat	lng	0.006591796875	0.03564453125	1.00244140625	2.50381679389313	-0.15267175572519084	0.7022900763358778	0.0	0.0	0.0
2017-08-17 17:10:32.393462	lat	lng	0.0068359375	0.031982421875	1.0009765625	2.5801526717557253	-0.12213740458015267	0.7938931297709924	0.0	0.0	0.0
2017-08-17 17:10:32.415306	lat	lng	0.004638671875	0.031494140625	1.00146484375	2.50381679389313	0.10687022900763359	0.9923664122137404	0.0	0.0	0.0
2017-08-17 17:10:32.437243	lat	lng	0.003173828125	0.028076171875	0.98779296875	2.5343511450381677	-0.10687022900763359	0.7633587786259542	0.0	0.0	0.0
2017-08-17 17:10:32.462554	lat	lng	0.001708984375	0.027099609375	0.998779296875	2.732824427480916	0.13740458015267176	0.8396946564885496	0.0	0.0	0.0
2017-08-17 17:10:32.485380	lat	lng	0.0048828125	0.030517578125	0.999755859375	2.6106870229007635	-0.061068702290076333	0.8396946564885496	0.0	0.0	0.0
2017-08-17 17:10:32.509220	lat	lng	0.00048828125	0.03076171875	0.99658203125	2.4885496183206106	-3.877862595419847	0.732824427480916	0.0	0.0	0.0
2017-08-17 17:10:32.534485	lat	lng	0.00390625	0.032958984375	0.994384765625	2.7022900763358777	-0.22900763358778625	0.6870229007633588	0.0	0.0	0.0
2017-08-17 17:10:32.558202	lat	lng	0.005126953125	0.029541015625	0.9990234375	2.366412213740458	0.10687022900763359	0.7175572519083969	0.0	0.0	0.0
2017-08-17 17:10:32.580713	lat	lng	0.002685546875	0.028564453125	1.001953125	2.6564885496183206	-0.07633587786259542	0.7786259541984732	0.0	0.0	0.0
2017-08-17 17:10:32.607574	lat	lng	0.0009765625	0.030517578125	0.99853515625	2.687022900763359	-0.15267175572519084	1.0687022900763359	0.0	0.0	0.0
2017-08-17 17:10:32.631848	lat	lng	0.008544921875	0.03076171875	1.002685546875	2.3969465648854964	-0.07633587786259542	0.8091603053435115	0.0	0.0	0.0
2017-08-17 17:10:32.654108	lat	lng	0.00390625	0.02783203125	0.99951171875	2.6564885496183206	-0.030534351145038167	0.8244274809160306	0.0	0.0	0.0
2017-08-17 17:10:32.675833	lat	lng	0.00927734375	0.03369140625	1.000732421875	2.4427480916030535	3.8473282442748094	0.732824427480916	0.0	0.0	0.0
2017-08-17 17:10:32.697479	lat	lng	0.006103515625	0.031005859375	1.000244140625	2.4580152671755724	0.16793893129770993	0.8702290076335878	0.0	0.0	0.0
2017-08-17 17:10:32.718709	lat	lng	0.0029296875	0.02783203125	1.0009765625	2.687022900763359	-0.2595419847328244	0.9770992366412213	0.0	0.0	0.0
2017-08-17 17:10:32.747569	lat	lng	0.00439453125	0.03173828125	0.995849609375	2.549618320610687	-3.9083969465648853	0.9007633587786259	0.0	0.0	0.0
2017-08-17 17:10:32.771386	lat	lng	0.00732421875	0.028076171875	0.9921875	2.5801526717557253	-0.16793893129770993	0.6870229007633588	0.0	0.0	0.0
2017-08-17 17:10:32.793003	lat	lng	0.02978515625	0.03125	1.00341796875	2.4732824427480917	-0.13740458015267176	0.8091603053435115	0.0	0.0	0.0
2017-08-17 17:10:32.815205	lat	lng	0.003173828125	0.03271484375	1.0068359375	2.519083969465649	-0.04580152671755725	0.8091603053435115	0.0	0.0	0.0
2017-08-17 17:10:32.845936	lat	lng	0.003662109375	0.033203125	1.003173828125	2.5343511450381677	-0.13740458015267176	0.9312977099236641	0.0	0.0	0.0
2017-08-17 17:10:32.866603	lat	lng	0.00341796875	0.02880859375	0.971923828125	2.4122137404580153	-3.8931297709923665	0.8091603053435115	0.0	0.0	0.0
2017-08-17 17:10:32.888158	lat	lng	0.0029296875	0.02783203125	0.996826171875	2.7480916030534353	3.8473282442748094	0.8091603053435115	0.0	0.0	0.0
2017-08-17 17:10:32.908907	lat	lng	0.0068359375	0.03271484375	1.002685546875	2.5801526717557253	0.030534351145038167	0.6106870229007634	0.0	0.0	0.0
2017-08-17 17:10:32.930096	lat	lng	0.004638671875	0.030029296875	1.00244140625	2.6717557251908395	-0.2748091603053435	0.8091603053435115	0.0	0.0	0.0
2017-08-17 17:10:32.953508	lat	lng	0.00927734375	0.02978515625	0.99951171875	2.427480916030534	0.15267175572519084	0.732824427480916	0.0	0.0	0.0
2017-08-17 17:10:32.993351	lat	lng	0.00341796875	0.029052734375	0.99365234375	2.6259541984732824	-0.07633587786259542	0.7480916030534351	0.0	0.0	0.0
2017-08-17 17:10:33.014154	lat	lng	0.00634765625	0.06103515625	1.0009765625	2.854961832061069	0.04580152671755725	0.8854961832061069	0.0	0.0	0.0
2017-08-17 17:10:33.034350	lat	lng	0.00439453125	0.03125	1.0009765625	2.6412213740458017	0.04580152671755725	0.732824427480916	0.0	0.0	0.0
2017-08-17 17:10:33.060725	lat	lng	0.003173828125	0.03662109375	1.005615234375	2.7480916030534353	-0.1984732824427481	0.7938931297709924	0.0	0.0	0.0
2017-08-17 17:10:33.088030	lat	lng	0.00439453125	0.030517578125	0.99560546875	2.381679389312977	-0.0916030534351145	0.7938931297709924	0.0	0.0	0.0
