Time	Position_lat	Position_lng	Accelerometer_x	Accelerometer_y	Accelerometer_z	Gyroscope_x	Gyroscope_y	Gyroscope_z	Magnetometer_x	Magnetometer_y	Magnetometer_z
2017-08-17 13:57:10.965075	lat	lng	0.0048828125	0.0302734375	0.999267578125	2.122137404580153	-0.061068702290076333	0.8549618320610687	0.0	0.0	0.0
2017-08-17 13:57:11.385502	lat	lng	0.0048828125	0.032958984375	0.992431640625	2.8396946564885495	0.04580152671755725	0.7175572519083969	0.0	0.0	0.0
2017-08-17 13:57:11.411212	lat	lng	0.001708984375	0.033935546875	0.98779296875	2.3206106870229006	0.15267175572519084	1.0381679389312977	0.0	0.0	0.0
2017-08-17 13:57:11.436848	lat	lng	0.001953125	0.035888671875	0.9921875	2.3969465648854964	-0.07633587786259542	1.0687022900763359	0.0	0.0	0.0
2017-08-17 13:57:11.460789	lat	lng	-0.001220703125	0.0322265625	0.996337890625	2.4122137404580153	0.10687022900763359	0.8396946564885496	0.0	0.0	0.0
2017-08-17 13:57:11.486485	lat	lng	0.00048828125	0.03173828125	0.997314453125	2.351145038167939	0.07633587786259542	0.9465648854961832	0.0	0.0	0.0
2017-08-17 13:57:11.516513	lat	lng	0.00048828125	0.001220703125	0.997314453125	2.3206106870229006	0.16793893129770993	0.9618320610687023	0.0	0.0	0.0
2017-08-17 13:57:11.538541	lat	lng	0.00341796875	0.029052734375	0.99560546875	2.2290076335877864	0.04580152671755725	1.0687022900763359	0.0	0.0	0.0
2017-08-17 13:57:11.567356	lat	lng	0.001220703125	0.030029296875	1.0048828125	2.427480916030534	0.0	0.9618320610687023	0.0	0.0	0.0
2017-08-17 13:57:11.589499	lat	lng	0.00048828125	0.034912109375	0.99951171875	2.4580152671755724	0.13740458015267176	1.0229007633587786	0.0	0.0	0.0
2017-08-17 13:57:11.611705	lat	lng	0.001220703125	0.0302734375	0.990966796875	2.4427480916030535	-0.15267175572519084	1.0381679389312977	0.0	0.0	0.0
2017-08-17 13:57:11.636659	lat	lng	0.00537109375	0.029296875	0.99658203125	2.4885496183206106	-0.12213740458015267	1.0076335877862594	0.0	0.0	0.0
2017-08-17 13:57:11.662419	lat	lng	0.003173828125	0.061767578125	0.994873046875	2.595419847328244	0.13740458015267176	0.732824427480916	0.0	0.0	0.0
2017-08-17 13:57:11.685017	lat	lng	0.00341796875	0.032958984375	0.99365234375	2.5343511450381677	0.0	0.8549618320610687	0.0	0.0	0.0
2017-08-17 13:57:11.702611	lat	lng	0.0009765625	0.03173828125	1.0009765625	2.366412213740458	-0.13740458015267176	0.9465648854961832	0.0	0.0	0.0
2017-08-17 13:57:11.720912	lat	lng	0.006591796875	0.034912109375	1.004150390625	2.4580152671755724	-0.07633587786259542	0.916030534351145	0.0	0.0	0.0
2017-08-17 13:57:11.739528	lat	lng	0.0009765625	0.03466796875	1.005126953125	2.5343511450381677	0.030534351145038167	0.7480916030534351	0.0	0.0	0.0
2017-08-17 13:57:11.757972	lat	lng	0.00146484375	0.032958984375	1.00146484375	2.6106870229007635	-0.16793893129770993	0.9465648854961832	0.0	0.0	0.0
2017-08-17 13:57:11.780315	lat	lng	0.005615234375	0.030029296875	1.00439453125	2.6717557251908395	-0.04580152671755725	0.8854961832061069	0.0	0.0	0.0
2017-08-17 13:57:11.805891	lat	lng	0.00341796875	0.030517578125	1.00390625	2.4732824427480917	0.0916030534351145	0.7938931297709924	0.0	0.0	0.0
2017-08-17 13:57:11.824886	lat	lng	0.00146484375	0.033935546875	1.007568359375	2.3969465648854964	0.0	0.8244274809160306	0.0	0.0	0.0
2017-08-17 13:57:11.845242	lat	lng	-0.002197265625	0.0361328125	0.995361328125	2.4885496183206106	0.015267175572519083	0.8854961832061069	0.0	0.0	0.0
2017-08-17 13:57:11.863419	lat	lng	0.000244140625	0.035888671875	1.002685546875	2.381679389312977	0.030534351145038167	0.7938931297709924	0.0	0.0	0.0
2017-08-17 13:57:11.884151	lat	lng	0.008544921875	0.03173828125	0.994873046875	2.33587786259542	-0.2595419847328244	0.916030534351145	0.0	0.0	0.0
2017-08-17 13:57:11.900589	lat	lng	0.005859375	0.037841796875	0.99658203125	2.4122137404580153	-0.030534351145038167	1.0076335877862594	0.0	0.0	0.0
2017-08-17 13:57:11.918665	lat	lng	0.002685546875	0.035400390625	0.997314453125	2.3053435114503817	0.15267175572519084	0.8854961832061069	0.0	0.0	0.0
2017-08-17 13:57:11.935118	lat	lng	0.001220703125	0.036376953125	1.0068359375	2.4122137404580153	-0.04580152671755725	0.7480916030534351	0.0	0.0	0.0
2017-08-17 13:57:11.956303	lat	lng	0.002197265625	0.036865234375	0.999755859375	2.3206106870229006	0.015267175572519083	0.6870229007633588	0.0	0.0	0.0
2017-08-17 13:57:11.973789	lat	lng	-0.0009765625	0.034912109375	1.006103515625	2.2595419847328246	-0.10687022900763359	0.9465648854961832	0.0	0.0	0.0
2017-08-17 13:57:11.992535	lat	lng	0.005126953125	0.03564453125	1.003662109375	2.50381679389313	-0.0916030534351145	0.6870229007633588	0.0	0.0	0.0
2017-08-17 13:57:12.016117	lat	lng	0.00341796875	0.035888671875	1.00244140625	2.549618320610687	-0.10687022900763359	0.8702290076335878	0.0	0.0	0.0
2017-08-17 13:57:12.033558	lat	lng	0.00439453125	0.032470703125	0.9990234375	2.519083969465649	-0.0916030534351145	0.7938931297709924	0.0	0.0	0.0
2017-08-17 13:57:12.057174	lat	lng	0.001708984375	0.033447265625	1.000732421875	2.381679389312977	0.10687022900763359	0.9770992366412213	0.0	0.0	0.0
2017-08-17 13:57:12.075613	lat	lng	0.0029296875	0.034423828125	1.0009765625	2.381679389312977	0.030534351145038167	0.9007633587786259	0.0	0.0	0.0
2017-08-17 13:57:12.094191	lat	lng	0.002685546875	0.03125	0.998291015625	2.4122137404580153	0.061068702290076333	1.099236641221374	0.0	0.0	0.0
2017-08-17 13:57:12.112109	lat	lng	0.005126953125	0.031494140625	1.004638671875	2.4885496183206106	-0.22900763358778625	0.7022900763358778	0.0	0.0	0.0
2017-08-17 13:57:12.135618	lat	lng	-0.0009765625	0.036376953125	1.002197265625	2.2900763358778624	0.04580152671755725	0.9465648854961832	0.0	0.0	0.0
2017-08-17 13:57:12.158342	lat	lng	0.00341796875	0.03369140625	0.995849609375	2.33587786259542	0.07633587786259542	0.9312977099236641	0.0	0.0	0.0
2017-08-17 13:57:12.182725	lat	lng	0.0048828125	0.036865234375	1.005615234375	2.2442748091603053	3.877862595419847	1.099236641221374	0.0	0.0	0.0
2017-08-17 13:57:12.204995	lat	lng	-0.001220703125	0.0361328125	0.999267578125	2.4122137404580153	0.030534351145038167	0.8549618320610687	0.0	0.0	0.0
2017-08-17 13:57:12.231955	lat	lng	0.005859375	0.03271484375	0.995361328125	2.351145038167939	0.0916030534351145	0.7786259541984732	0.0	0.0	0.0
2017-08-17 13:57:12.255635	lat	lng	0.001708984375	0.033935546875	1.004150390625	2.427480916030534	0.061068702290076333	0.732824427480916	0.0	0.0	0.0
2017-08-17 13:57:12.279871	lat	lng	0.000244140625	0.031982421875	1.001220703125	2.564885496183206	0.2595419847328244	0.7633587786259542	0.0	0.0	0.0
2017-08-17 13:57:12.306593	lat	lng	0.00146484375	0.034423828125	1.00048828125	2.4427480916030535	0.10687022900763359	0.916030534351145	0.0	0.0	0.0
2017-08-17 13:57:12.334266	lat	lng	0.004150390625	0.02978515625	1.00439453125	2.564885496183206	0.12213740458015267	0.7786259541984732	0.0	0.0	0.0
2017-08-17 13:57:12.361614	lat	lng	0.00244140625	0.03515625	0.99365234375	2.2595419847328246	-0.061068702290076333	0.8702290076335878	0.0	0.0	0.0
2017-08-17 13:57:12.387783	lat	lng	0.0	0.033203125	1.02783203125	2.16793893129771	0.3816793893129771	1.1145038167938932	0.0	0.0	0.0
2017-08-17 13:57:12.412749	lat	lng	0.001708984375	0.03076171875	1.0029296875	2.3969465648854964	-0.061068702290076333	0.9007633587786259	0.0	0.0	0.0
2017-08-17 13:57:12.437841	lat	lng	0.00390625	0.061767578125	1.00146484375	2.366412213740458	-0.0916030534351145	0.7022900763358778	0.0	0.0	0.0
2017-08-17 13:57:12.463828	lat	lng	0.001953125	0.03173828125	1.005859375	2.519083969465649	0.015267175572519083	1.0534351145038168	0.0	0.0	0.0
2017-08-17 13:57:12.489246	lat	lng	-0.000244140625	0.03466796875	0.996826171875	2.4580152671755724	-0.04580152671755725	1.0076335877862594	0.0	0.0	0.0
2017-08-17 13:57:12.514569	lat	lng	0.00537109375	0.033447265625	1.004638671875	2.351145038167939	0.183206106870229	0.9770992366412213	0.0	0.0	0.0
2017-08-17 13:57:12.535323	lat	lng	-0.029541015625	0.034912109375	0.99853515625	2.549618320610687	0.2748091603053435	0.732824427480916	0.0	0.0	0.0
2017-08-17 13:57:12.555788	lat	lng	0.004638671875	0.036865234375	1.00830078125	2.381679389312977	-0.04580152671755725	1.0229007633587786	0.0	0.0	0.0
2017-08-17 13:57:12.577495	lat	lng	-0.030517578125	0.035400390625	0.998291015625	2.4885496183206106	-0.061068702290076333	0.8244274809160306	0.0	0.0	0.0
2017-08-17 13:57:12.599645	lat	lng	-0.0009765625	0.035888671875	1.00537109375	2.381679389312977	0.12213740458015267	1.0534351145038168	0.0	0.0	0.0
2017-08-17 13:57:12.620581	lat	lng	0.0029296875	0.032470703125	1.0087890625	2.3969465648854964	0.030534351145038167	0.8396946564885496	0.0	0.0	0.0
2017-08-17 13:57:12.642287	lat	lng	0.00390625	0.0322265625	1.001220703125	2.4122137404580153	-3.9083969465648853	0.9618320610687023	0.0	0.0	0.0
2017-08-17 13:57:12.662886	lat	lng	0.00146484375	0.03271484375	0.991943359375	2.3053435114503817	-0.04580152671755725	0.9618320610687023	0.0	0.0	0.0
2017-08-17 13:57:12.683690	lat	lng	0.00244140625	0.032470703125	1.0009765625	2.7480916030534353	0.04580152671755725	0.9312977099236641	0.0	0.0	0.0
2017-08-17 13:57:12.707111	lat	lng	0.002685546875	0.06201171875	0.999755859375	2.687022900763359	0.21374045801526717	0.8702290076335878	0.0	0.0	0.0
2017-08-17 13:57:12.728549	lat	lng	0.001220703125	0.03564453125	0.9990234375	2.366412213740458	0.061068702290076333	1.1450381679389312	0.0	0.0	0.0
2017-08-17 13:57:12.754136	lat	lng	0.001953125	0.033447265625	1.0029296875	2.4427480916030535	-0.0916030534351145	0.9770992366412213	0.0	0.0	0.0
2017-08-17 13:57:12.777931	lat	lng	0.003173828125	0.03173828125	1.0087890625	2.519083969465649	0.10687022900763359	1.0534351145038168	0.0	0.0	0.0
2017-08-17 13:57:12.806517	lat	lng	0.001953125	0.03271484375	1.003662109375	2.4580152671755724	-0.12213740458015267	1.0534351145038168	0.0	0.0	0.0
2017-08-17 13:57:12.827982	lat	lng	0.0029296875	0.034423828125	1.0029296875	2.5343511450381677	-0.015267175572519083	0.9007633587786259	0.0	0.0	0.0
2017-08-17 13:57:12.852582	lat	lng	-0.00146484375	0.03466796875	0.9951171875	2.2900763358778624	0.061068702290076333	0.8244274809160306	0.0	0.0	0.0
2017-08-17 13:57:12.874559	lat	lng	0.000244140625	0.035888671875	1.00732421875	2.564885496183206	-0.015267175572519083	0.6106870229007634	0.0	0.0	0.0
2017-08-17 13:57:12.897923	lat	lng	0.00390625	0.032958984375	0.975830078125	2.50381679389313	-0.04580152671755725	0.7938931297709924	0.0	0.0	0.0
2017-08-17 13:57:12.925734	lat	lng	0.000244140625	0.030517578125	1.000244140625	2.3206106870229006	0.16793893129770993	1.0229007633587786	0.0	0.0	0.0
2017-08-17 13:57:12.947380	lat	lng	0.003662109375	0.035400390625	1.0009765625	2.4122137404580153	-0.015267175572519083	1.1603053435114503	0.0	0.0	0.0
2017-08-17 13:57:12.971371	lat	lng	0.001953125	0.034423828125	1.000732421875	2.564885496183206	0.0	0.8244274809160306	0.0	0.0	0.0
2017-08-17 13:57:12.992346	lat	lng	0.00341796875	0.033935546875	0.99951171875	2.427480916030534	0.030534351145038167	0.9618320610687023	0.0	0.0	0.0
2017-08-17 13:57:13.017011	lat	lng	0.00244140625	0.03173828125	1.0029296875	2.3206106870229006	0.1984732824427481	0.8549618320610687	0.0	0.0	0.0
2017-08-17 13:57:13.039652	lat	lng	0.00537109375	0.060302734375	0.994384765625	2.4122137404580153	0.0916030534351145	0.916030534351145	0.0	0.0	0.0
2017-08-17 13:57:13.061389	lat	lng	0.000244140625	0.032958984375	1.00439453125	2.5343511450381677	-0.183206106870229	0.9007633587786259	0.0	0.0	0.0
2017-08-17 13:57:13.085393	lat	lng	0.005126953125	0.0322265625	0.993896484375	2.4885496183206106	-0.13740458015267176	0.8549618320610687	0.0	0.0	0.0
2017-08-17 13:57:13.106705	lat	lng	0.005615234375	0.0302734375	1.0	2.50381679389313	0.10687022900763359	0.8396946564885496	0.0	0.0	0.0
2017-08-17 13:57:13.127885	lat	lng	0.001708984375	0.0302734375	1.00341796875	2.50381679389313	-0.015267175572519083	1.0076335877862594	0.0	0.0	0.0
2017-08-17 13:57:13.155296	lat	lng	0.001708984375	0.03271484375	0.996826171875	2.4427480916030535	0.0916030534351145	0.9312977099236641	0.0	0.0	0.0
2017-08-17 13:57:13.181617	lat	lng	0.0029296875	0.032470703125	0.993896484375	2.4427480916030535	0.015267175572519083	0.7633587786259542	0.0	0.0	0.0
2017-08-17 13:57:13.209181	lat	lng	-0.0009765625	0.032470703125	1.00244140625	2.3206106870229006	3.877862595419847	1.0076335877862594	0.0	0.0	0.0
2017-08-17 13:57:13.237397	lat	lng	0.00390625	0.035400390625	0.9990234375	2.732824427480916	-0.21374045801526717	0.6412213740458015	0.0	0.0	0.0
2017-08-17 13:57:13.261729	lat	lng	0.00048828125	0.03369140625	1.000244140625	2.6259541984732824	-0.030534351145038167	1.0534351145038168	0.0	0.0	0.0
2017-08-17 13:57:13.289364	lat	lng	0.00244140625	0.035888671875	0.994384765625	2.3053435114503817	0.0916030534351145	1.0687022900763359	0.0	0.0	0.0
2017-08-17 13:57:13.315998	lat	lng	-0.00048828125	0.0341796875	0.992919921875	2.6412213740458017	-0.07633587786259542	0.8549618320610687	0.0	0.0	0.0
2017-08-17 13:57:13.337797	lat	lng	-0.00048828125	0.030517578125	0.998046875	2.381679389312977	-0.061068702290076333	0.7480916030534351	0.0	0.0	0.0
2017-08-17 13:57:13.362204	lat	lng	0.00390625	0.033447265625	0.996826171875	2.3053435114503817	-3.9083969465648853	0.8549618320610687	0.0	0.0	0.0
2017-08-17 13:57:13.384030	lat	lng	0.000732421875	0.02734375	0.997314453125	2.50381679389313	-0.10687022900763359	0.9770992366412213	0.0	0.0	0.0
2017-08-17 13:57:13.405511	lat	lng	0.00048828125	0.032958984375	0.996337890625	2.3206106870229006	0.16793893129770993	0.8549618320610687	0.0	0.0	0.0
2017-08-17 13:57:13.429688	lat	lng	-0.0009765625	0.033935546875	0.99951171875	2.5801526717557253	-3.8931297709923665	0.6564885496183206	0.0	0.0	0.0
2017-08-17 13:57:13.450347	lat	lng	0.003173828125	0.0302734375	1.00244140625	2.6717557251908395	-0.07633587786259542	0.8854961832061069	0.0	0.0	0.0
2017-08-17 13:57:13.472995	lat	lng	0.0029296875	0.034912109375	0.99951171875	2.549618320610687	-0.07633587786259542	1.0534351145038168	0.0	0.0	0.0
2017-08-17 13:57:13.499929	lat	lng	0.005126953125	0.0302734375	1.00146484375	2.351145038167939	-0.16793893129770993	1.0076335877862594	0.0	0.0	0.0
2017-08-17 13:57:13.529100	lat	lng	0.00634765625	0.02978515625	0.998779296875	2.4580152671755724	3.8931297709923665	1.0381679389312977	0.0	0.0	0.0
2017-08-17 13:57:13.551814	lat	lng	0.000244140625	0.034423828125	1.001220703125	2.687022900763359	-0.21374045801526717	0.9007633587786259	0.0	0.0	0.0
2017-08-17 13:57:13.577328	lat	lng	0.002197265625	0.03466796875	1.02880859375	2.3206106870229006	-0.15267175572519084	0.8244274809160306	0.0	0.0	0.0
2017-08-17 13:57:13.605241	lat	lng	-0.004150390625	0.0361328125	0.99267578125	2.4732824427480917	0.07633587786259542	0.8396946564885496	0.0	0.0	0.0
2017-08-17 13:57:13.631693	lat	lng	0.00146484375	0.03466796875	0.997802734375	2.549618320610687	0.10687022900763359	1.0076335877862594	0.0	0.0	0.0
2017-08-17 13:57:13.655447	lat	lng	0.000732421875	0.034912109375	1.000732421875	2.4732824427480917	0.015267175572519083	0.9618320610687023	0.0	0.0	0.0
2017-08-17 13:57:13.680670	lat	lng	0.004150390625	0.0322265625	0.99853515625	2.4122137404580153	0.12213740458015267	0.7633587786259542	0.0	0.0	0.0
2017-08-17 13:57:13.741341	lat	lng	0.001708984375	0.035400390625	0.989990234375	2.4122137404580153	-0.0916030534351145	0.7480916030534351	0.0	0.0	0.0
2017-08-17 13:57:13.769070	lat	lng	0.0009765625	0.03173828125	0.9990234375	2.4122137404580153	-0.07633587786259542	0.9618320610687023	0.0	0.0	0.0
2017-08-17 13:57:13.791714	lat	lng	0.005859375	0.032470703125	1.00146484375	2.519083969465649	-0.2748091603053435	0.8854961832061069	0.0	0.0	0.0
2017-08-17 13:57:13.814893	lat	lng	0.001708984375	0.03173828125	0.998291015625	2.3969465648854964	0.0916030534351145	0.8854961832061069	0.0	0.0	0.0
2017-08-17 13:57:13.838484	lat	lng	0.004150390625	0.03369140625	1.006103515625	2.4427480916030535	-0.0916030534351145	0.8854961832061069	0.0	0.0	0.0
2017-08-17 13:57:13.861443	lat	lng	0.00244140625	0.03173828125	0.996826171875	2.351145038167939	-0.183206106870229	1.1603053435114503	0.0	0.0	0.0
2017-08-17 13:57:13.885007	lat	lng	0.0029296875	0.033203125	1.0048828125	2.351145038167939	0.015267175572519083	0.8854961832061069	0.0	0.0	0.0
2017-08-17 13:57:13.907367	lat	lng	0.00244140625	0.033203125	1.006103515625	2.2442748091603053	-0.07633587786259542	0.916030534351145	0.0	0.0	0.0
2017-08-17 13:57:13.929998	lat	lng	0.0029296875	0.0322265625	0.996337890625	2.4885496183206106	-0.183206106870229	0.9770992366412213	0.0	0.0	0.0
2017-08-17 13:57:13.955712	lat	lng	0.002197265625	0.03173828125	0.998291015625	2.2595419847328246	0.13740458015267176	0.8854961832061069	0.0	0.0	0.0
2017-08-17 13:57:13.986215	lat	lng	0.001708984375	0.033203125	0.99609375	2.2900763358778624	0.04580152671755725	0.9312977099236641	0.0	0.0	0.0
2017-08-17 13:57:14.009498	lat	lng	0.00439453125	0.0341796875	0.99560546875	2.854961832061069	0.16793893129770993	0.9618320610687023	0.0	0.0	0.0
2017-08-17 13:57:14.031701	lat	lng	0.001953125	0.034912109375	1.00341796875	2.595419847328244	0.0916030534351145	0.9618320610687023	0.0	0.0	0.0
2017-08-17 13:57:14.057200	lat	lng	0.002197265625	0.034912109375	0.994140625	2.3206106870229006	0.0	0.8091603053435115	0.0	0.0	0.0
2017-08-17 13:57:14.081989	lat	lng	0.0	0.032958984375	0.9736328125	2.3053435114503817	-0.061068702290076333	0.6106870229007634	0.0	0.0	0.0
2017-08-17 13:57:14.105532	lat	lng	0.00341796875	0.031982421875	1.02978515625	2.351145038167939	-0.13740458015267176	1.0229007633587786	0.0	0.0	0.0
2017-08-17 13:57:14.130338	lat	lng	0.00146484375	0.03271484375	1.0009765625	2.4580152671755724	-0.0916030534351145	0.9312977099236641	0.0	0.0	0.0
2017-08-17 13:57:14.155412	lat	lng	0.00146484375	0.031982421875	0.99560546875	2.4580152671755724	0.15267175572519084	0.9312977099236641	0.0	0.0	0.0
2017-08-17 13:57:14.186152	lat	lng	0.00146484375	0.02978515625	0.9970703125	2.427480916030534	-0.22900763358778625	0.8854961832061069	0.0	0.0	0.0
2017-08-17 13:57:14.207776	lat	lng	0.00146484375	0.032470703125	1.000732421875	2.2900763358778624	0.1984732824427481	0.9923664122137404	0.0	0.0	0.0
2017-08-17 13:57:14.228980	lat	lng	0.005126953125	0.032958984375	1.001220703125	2.366412213740458	0.04580152671755725	1.0076335877862594	0.0	0.0	0.0
2017-08-17 13:57:14.250643	lat	lng	0.0048828125	0.0322265625	1.00439453125	2.549618320610687	-0.030534351145038167	0.916030534351145	0.0	0.0	0.0
2017-08-17 13:57:14.272414	lat	lng	0.00146484375	0.001953125	1.00341796875	2.381679389312977	-3.8931297709923665	0.8854961832061069	0.0	0.0	0.0
2017-08-17 13:57:14.293602	lat	lng	0.001708984375	0.03466796875	0.973876953125	2.4427480916030535	0.0916030534351145	0.8549618320610687	0.0	0.0	0.0
2017-08-17 13:57:14.314149	lat	lng	0.002197265625	0.03955078125	1.000244140625	2.4427480916030535	-0.030534351145038167	0.9618320610687023	0.0	0.0	0.0
2017-08-17 13:57:14.334573	lat	lng	0.0009765625	0.03076171875	1.002197265625	2.3206106870229006	-0.15267175572519084	0.8091603053435115	0.0	0.0	0.0
2017-08-17 13:57:14.355067	lat	lng	0.000732421875	0.030029296875	1.00341796875	2.4122137404580153	-0.07633587786259542	0.8091603053435115	0.0	0.0	0.0
2017-08-17 13:57:14.375766	lat	lng	0.0048828125	0.031005859375	1.00048828125	2.4580152671755724	0.13740458015267176	0.9465648854961832	0.0	0.0	0.0
2017-08-17 13:57:14.396388	lat	lng	0.00732421875	0.03271484375	1.003173828125	2.6717557251908395	-0.10687022900763359	0.7938931297709924	0.0	0.0	0.0
2017-08-17 13:57:14.416897	lat	lng	0.00732421875	0.0361328125	1.0	2.2595419847328246	0.12213740458015267	0.9465648854961832	0.0	0.0	0.0
2017-08-17 13:57:14.437501	lat	lng	0.00244140625	0.03466796875	0.97119140625	2.427480916030534	-3.9083969465648853	0.8396946564885496	0.0	0.0	0.0
2017-08-17 13:57:14.458025	lat	lng	0.00244140625	0.03271484375	0.99951171875	2.4427480916030535	0.15267175572519084	0.9923664122137404	0.0	0.0	0.0
2017-08-17 13:57:14.479509	lat	lng	0.004150390625	0.03125	0.999267578125	2.5801526717557253	-0.10687022900763359	1.0534351145038168	0.0	0.0	0.0
2017-08-17 13:57:14.502465	lat	lng	0.002685546875	0.03515625	0.991943359375	2.549618320610687	-0.04580152671755725	0.732824427480916	0.0	0.0	0.0
2017-08-17 13:57:14.523257	lat	lng	-0.0029296875	0.0341796875	1.000244140625	2.366412213740458	0.12213740458015267	0.9923664122137404	0.0	0.0	0.0
2017-08-17 13:57:14.545308	lat	lng	0.001708984375	0.0361328125	1.002685546875	2.5343511450381677	0.2595419847328244	0.8854961832061069	0.0	0.0	0.0
2017-08-17 13:57:14.567414	lat	lng	0.00439453125	0.02880859375	1.00634765625	2.50381679389313	-0.21374045801526717	0.9007633587786259	0.0	0.0	0.0
2017-08-17 13:57:14.588540	lat	lng	0.002685546875	0.027587890625	0.997314453125	2.5343511450381677	-0.12213740458015267	0.9312977099236641	0.0	0.0	0.0
2017-08-17 13:57:14.608896	lat	lng	0.002197265625	0.03515625	1.00048828125	2.4122137404580153	-0.13740458015267176	0.9465648854961832	0.0	0.0	0.0
2017-08-17 13:57:14.629196	lat	lng	0.00146484375	0.033447265625	1.003173828125	2.6106870229007635	-0.10687022900763359	0.8244274809160306	0.0	0.0	0.0
2017-08-17 13:57:14.649525	lat	lng	0.00439453125	0.02978515625	1.030517578125	2.564885496183206	-0.13740458015267176	0.9618320610687023	0.0	0.0	0.0
2017-08-17 13:57:14.669792	lat	lng	0.0029296875	0.033447265625	0.99560546875	2.366412213740458	-0.32061068702290074	1.0229007633587786	0.0	0.0	0.0
2017-08-17 13:57:14.690088	lat	lng	0.0078125	0.03369140625	0.997314453125	2.351145038167939	0.07633587786259542	0.7175572519083969	0.0	0.0	0.0
2017-08-17 13:57:14.710475	lat	lng	0.001953125	0.026123046875	1.0048828125	2.3969465648854964	-0.04580152671755725	0.9007633587786259	0.0	0.0	0.0
2017-08-17 13:57:14.730675	lat	lng	0.0	0.033203125	1.00244140625	2.4732824427480917	0.0	0.9312977099236641	0.0	0.0	0.0
2017-08-17 13:57:14.750839	lat	lng	0.000244140625	0.035888671875	1.003173828125	2.366412213740458	-0.030534351145038167	0.7786259541984732	0.0	0.0	0.0
2017-08-17 13:57:14.771154	lat	lng	0.002685546875	0.03369140625	1.0078125	2.427480916030534	0.13740458015267176	0.8702290076335878	0.0	0.0	0.0
2017-08-17 13:57:14.791464	lat	lng	-0.002197265625	0.032470703125	0.998046875	2.198473282442748	0.07633587786259542	0.9312977099236641	0.0	0.0	0.0
2017-08-17 13:57:14.811705	lat	lng	0.001953125	0.034423828125	1.00732421875	2.4732824427480917	0.030534351145038167	0.9312977099236641	0.0	0.0	0.0
2017-08-17 13:57:14.831952	lat	lng	-0.000244140625	0.03466796875	1.00146484375	2.4122137404580153	0.12213740458015267	0.7633587786259542	0.0	0.0	0.0
2017-08-17 13:57:14.852602	lat	lng	0.000732421875	0.0341796875	1.031005859375	2.381679389312977	-0.10687022900763359	0.7786259541984732	0.0	0.0	0.0
2017-08-17 13:57:14.872877	lat	lng	0.004638671875	0.062255859375	0.999267578125	2.351145038167939	0.12213740458015267	1.0534351145038168	0.0	0.0	0.0
2017-08-17 13:57:14.893144	lat	lng	0.00341796875	0.0322265625	1.005615234375	2.687022900763359	0.0916030534351145	1.099236641221374	0.0	0.0	0.0
2017-08-17 13:57:14.913462	lat	lng	0.001220703125	0.031494140625	1.00146484375	2.3053435114503817	3.8931297709923665	0.9618320610687023	0.0	0.0	0.0
2017-08-17 13:57:14.933793	lat	lng	0.00146484375	0.032470703125	0.997314453125	2.3206106870229006	-0.061068702290076333	0.9618320610687023	0.0	0.0	0.0
2017-08-17 13:57:14.954085	lat	lng	0.003173828125	0.035888671875	1.01025390625	2.2748091603053435	0.0916030534351145	0.9312977099236641	0.0	0.0	0.0
2017-08-17 13:57:14.974421	lat	lng	0.000732421875	0.031005859375	1.008056640625	2.366412213740458	-0.1984732824427481	0.8244274809160306	0.0	0.0	0.0
2017-08-17 13:57:15.000167	lat	lng	0.000244140625	0.028564453125	1.00439453125	2.4122137404580153	0.030534351145038167	0.8702290076335878	0.0	0.0	0.0
2017-08-17 13:57:15.022982	lat	lng	0.003173828125	0.062255859375	0.99658203125	2.6106870229007635	-0.2748091603053435	0.7938931297709924	0.0	0.0	0.0
2017-08-17 13:57:15.049439	lat	lng	0.000732421875	0.035888671875	1.00146484375	2.2595419847328246	0.13740458015267176	0.8549618320610687	0.0	0.0	0.0
2017-08-17 13:57:15.071917	lat	lng	0.002685546875	0.0341796875	1.0009765625	2.3206106870229006	-0.04580152671755725	0.7938931297709924	0.0	0.0	0.0
2017-08-17 13:57:15.094555	lat	lng	0.00146484375	0.031005859375	1.00390625	2.50381679389313	-0.061068702290076333	0.8854961832061069	0.0	0.0	0.0
2017-08-17 13:57:15.118829	lat	lng	0.002685546875	0.035400390625	0.998779296875	2.4427480916030535	-0.0916030534351145	0.916030534351145	0.0	0.0	0.0
2017-08-17 13:57:15.142265	lat	lng	-0.00146484375	0.0341796875	1.000732421875	2.2748091603053435	0.04580152671755725	0.8091603053435115	0.0	0.0	0.0
2017-08-17 13:57:15.163951	lat	lng	0.002685546875	0.031982421875	0.999267578125	2.33587786259542	0.12213740458015267	0.9770992366412213	0.0	0.0	0.0
2017-08-17 13:57:15.185905	lat	lng	0.00927734375	0.034912109375	1.003662109375	2.3053435114503817	0.061068702290076333	1.0229007633587786	0.0	0.0	0.0
2017-08-17 13:57:15.208456	lat	lng	0.00537109375	0.036376953125	0.975341796875	2.381679389312977	0.061068702290076333	0.8854961832061069	0.0	0.0	0.0
2017-08-17 13:57:15.237320	lat	lng	0.001953125	0.033447265625	1.0068359375	2.6412213740458017	-0.030534351145038167	0.7938931297709924	0.0	0.0	0.0
2017-08-17 13:57:15.258856	lat	lng	0.001708984375	0.029541015625	0.99462890625	2.4427480916030535	0.030534351145038167	0.916030534351145	0.0	0.0	0.0
2017-08-17 13:57:15.282533	lat	lng	0.001708984375	0.032958984375	1.00048828125	2.351145038167939	-0.0916030534351145	0.8549618320610687	0.0	0.0	0.0
2017-08-17 13:57:15.305674	lat	lng	0.000732421875	0.0341796875	0.99755859375	2.213740458015267	0.030534351145038167	0.7938931297709924	0.0	0.0	0.0
2017-08-17 13:57:15.329620	lat	lng	0.0029296875	0.03369140625	0.99951171875	2.6106870229007635	-3.9083969465648853	1.0687022900763359	0.0	0.0	0.0
2017-08-17 13:57:15.359228	lat	lng	0.001708984375	0.034912109375	1.00830078125	2.33587786259542	0.0916030534351145	1.0229007633587786	0.0	0.0	0.0
2017-08-17 13:57:15.382036	lat	lng	0.001220703125	0.0322265625	0.998779296875	2.6717557251908395	-0.21374045801526717	0.8244274809160306	0.0	0.0	0.0
2017-08-17 13:57:15.405835	lat	lng	0.0009765625	0.02978515625	0.99462890625	2.6412213740458017	0.061068702290076333	0.9770992366412213	0.0	0.0	0.0
2017-08-17 13:57:15.434630	lat	lng	0.00048828125	0.03271484375	1.004150390625	2.3206106870229006	-0.015267175572519083	0.7175572519083969	0.0	0.0	0.0
2017-08-17 13:57:15.455084	lat	lng	0.0029296875	0.032470703125	1.00439453125	2.33587786259542	-3.8931297709923665	0.8702290076335878	0.0	0.0	0.0
2017-08-17 13:57:15.475970	lat	lng	0.006103515625	0.03271484375	0.999267578125	2.4427480916030535	0.04580152671755725	0.8396946564885496	0.0	0.0	0.0
2017-08-17 13:57:15.497224	lat	lng	-0.001220703125	0.035400390625	1.0068359375	2.3969465648854964	-0.21374045801526717	0.7938931297709924	0.0	0.0	0.0
2017-08-17 13:57:15.518074	lat	lng	0.00341796875	0.031494140625	1.00048828125	2.3206106870229006	-0.061068702290076333	0.6564885496183206	0.0	0.0	0.0
2017-08-17 13:57:15.540048	lat	lng	0.001220703125	0.03271484375	0.975830078125	2.4732824427480917	-0.366412213740458	0.7633587786259542	0.0	0.0	0.0
2017-08-17 13:57:15.560839	lat	lng	-0.001953125	0.0341796875	1.00341796875	2.6106870229007635	0.0916030534351145	0.8702290076335878	0.0	0.0	0.0
2017-08-17 13:57:15.586091	lat	lng	0.003173828125	0.033447265625	1.001708984375	2.366412213740458	-0.061068702290076333	0.8854961832061069	0.0	0.0	0.0
2017-08-17 13:57:15.606424	lat	lng	0.000244140625	0.03466796875	1.029541015625	2.427480916030534	-0.0916030534351145	0.9312977099236641	0.0	0.0	0.0
2017-08-17 13:57:15.623414	lat	lng	-0.00146484375	0.03369140625	0.996826171875	2.33587786259542	3.877862595419847	0.7938931297709924	0.0	0.0	0.0
2017-08-17 13:57:15.640493	lat	lng	-0.00341796875	0.030517578125	0.99462890625	2.3969465648854964	-0.0916030534351145	0.7938931297709924	0.0	0.0	0.0
2017-08-17 13:57:15.657088	lat	lng	0.003662109375	0.0341796875	1.000732421875	2.2290076335877864	-0.0916030534351145	0.9618320610687023	0.0	0.0	0.0
2017-08-17 13:57:15.676175	lat	lng	0.0009765625	0.034423828125	1.00537109375	2.2900763358778624	-0.015267175572519083	1.083969465648855	0.0	0.0	0.0
2017-08-17 13:57:15.692962	lat	lng	0.004150390625	0.030029296875	1.00439453125	2.381679389312977	-0.183206106870229	0.7175572519083969	0.0	0.0	0.0
2017-08-17 13:57:15.712885	lat	lng	-0.00146484375	0.034423828125	0.99853515625	2.33587786259542	-0.15267175572519084	0.8702290076335878	0.0	0.0	0.0
2017-08-17 13:57:15.729571	lat	lng	0.0	0.03662109375	0.970947265625	2.2748091603053435	-0.061068702290076333	0.7480916030534351	0.0	0.0	0.0
2017-08-17 13:57:15.748447	lat	lng	0.00146484375	0.03271484375	1.004638671875	2.4427480916030535	0.04580152671755725	0.8244274809160306	0.0	0.0	0.0
2017-08-17 13:57:15.765033	lat	lng	0.001220703125	0.035400390625	1.00048828125	2.2900763358778624	3.8931297709923665	1.0076335877862594	0.0	0.0	0.0
2017-08-17 13:57:15.782834	lat	lng	0.003173828125	0.039306640625	1.031005859375	2.4122137404580153	-0.04580152671755725	0.916030534351145	0.0	0.0	0.0
2017-08-17 13:57:15.799454	lat	lng	0.00244140625	0.029541015625	0.999755859375	2.549618320610687	-0.07633587786259542	0.732824427480916	0.0	0.0	0.0
2017-08-17 13:57:15.818154	lat	lng	0.001708984375	0.030517578125	1.003662109375	2.595419847328244	0.1984732824427481	0.7938931297709924	0.0	0.0	0.0
2017-08-17 13:57:15.836155	lat	lng	0.00146484375	0.03173828125	0.9990234375	2.4885496183206106	0.16793893129770993	1.0687022900763359	0.0	0.0	0.0
2017-08-17 13:57:15.854274	lat	lng	-0.002197265625	0.03271484375	1.00927734375	2.3053435114503817	-0.366412213740458	0.9312977099236641	0.0	0.0	0.0
2017-08-17 13:57:15.871083	lat	lng	0.00048828125	0.0341796875	0.999755859375	2.213740458015267	-0.12213740458015267	1.2061068702290076	0.0	0.0	0.0
2017-08-17 13:57:15.888050	lat	lng	0.003662109375	0.03369140625	1.00341796875	2.33587786259542	-0.061068702290076333	0.8396946564885496	0.0	0.0	0.0
2017-08-17 13:57:15.906681	lat	lng	0.0048828125	0.033935546875	1.00146484375	2.427480916030534	-0.015267175572519083	0.9618320610687023	0.0	0.0	0.0
2017-08-17 13:57:15.925553	lat	lng	0.005859375	0.030517578125	1.002685546875	2.6259541984732824	-3.9083969465648853	0.8854961832061069	0.0	0.0	0.0
2017-08-17 13:57:15.944381	lat	lng	0.00048828125	0.03076171875	0.999755859375	2.4427480916030535	-0.07633587786259542	0.8396946564885496	0.0	0.0	0.0
2017-08-17 13:57:15.963262	lat	lng	0.003173828125	0.0341796875	1.001953125	2.6717557251908395	0.183206106870229	1.1297709923664123	0.0	0.0	0.0
2017-08-17 13:57:15.981983	lat	lng	0.0029296875	0.03515625	1.004150390625	2.6259541984732824	-0.07633587786259542	0.8854961832061069	0.0	0.0	0.0
2017-08-17 13:57:15.999377	lat	lng	0.002197265625	0.033935546875	0.99755859375	2.519083969465649	-0.04580152671755725	0.9770992366412213	0.0	0.0	0.0
2017-08-17 13:57:16.016716	lat	lng	0.000244140625	0.034423828125	0.999755859375	2.4122137404580153	0.10687022900763359	0.9618320610687023	0.0	0.0	0.0
2017-08-17 13:57:16.034739	lat	lng	0.02978515625	0.031494140625	1.001220703125	2.2748091603053435	0.07633587786259542	0.916030534351145	0.0	0.0	0.0
2017-08-17 13:57:16.052076	lat	lng	0.005126953125	0.03466796875	1.0029296875	2.427480916030534	-0.0916030534351145	0.9465648854961832	0.0	0.0	0.0
2017-08-17 13:57:16.069655	lat	lng	0.000732421875	0.029296875	1.005859375	2.4732824427480917	0.07633587786259542	0.8091603053435115	0.0	0.0	0.0
2017-08-17 13:57:16.087219	lat	lng	0.005126953125	0.036376953125	1.005126953125	2.5343511450381677	-0.24427480916030533	0.7480916030534351	0.0	0.0	0.0
2017-08-17 13:57:16.104957	lat	lng	0.004150390625	0.03515625	1.000244140625	2.2748091603053435	0.10687022900763359	0.5954198473282443	0.0	0.0	0.0
2017-08-17 13:57:16.122807	lat	lng	0.006103515625	0.032470703125	1.00146484375	2.427480916030534	-0.07633587786259542	0.6564885496183206	0.0	0.0	0.0
2017-08-17 13:57:16.141239	lat	lng	-0.00048828125	0.034423828125	1.0029296875	2.4732824427480917	-0.07633587786259542	0.9007633587786259	0.0	0.0	0.0
2017-08-17 13:57:16.159084	lat	lng	0.00341796875	0.032958984375	0.99755859375	2.0916030534351147	-0.10687022900763359	0.8091603053435115	0.0	0.0	0.0
2017-08-17 13:57:16.176568	lat	lng	0.000732421875	0.031494140625	1.0078125	2.198473282442748	-3.9083969465648853	0.916030534351145	0.0	0.0	0.0
2017-08-17 13:57:16.194526	lat	lng	0.0048828125	0.03369140625	1.009765625	2.427480916030534	-0.13740458015267176	0.9312977099236641	0.0	0.0	0.0
2017-08-17 13:57:16.212553	lat	lng	0.00341796875	0.035888671875	1.00244140625	2.2290076335877864	-0.030534351145038167	0.8549618320610687	0.0	0.0	0.0
2017-08-17 13:57:16.231065	lat	lng	0.002685546875	0.029052734375	1.00390625	2.2748091603053435	0.2748091603053435	0.7175572519083969	0.0	0.0	0.0
2017-08-17 13:57:16.248691	lat	lng	0.00390625	0.031982421875	1.00927734375	2.549618320610687	0.04580152671755725	0.9770992366412213	0.0	0.0	0.0
2017-08-17 13:57:16.266850	lat	lng	0.000732421875	0.0302734375	1.004638671875	2.3969465648854964	0.21374045801526717	0.8549618320610687	0.0	0.0	0.0
2017-08-17 13:57:16.285896	lat	lng	0.004150390625	0.036865234375	1.004150390625	2.687022900763359	-0.10687022900763359	1.083969465648855	0.0	0.0	0.0
2017-08-17 13:57:16.303844	lat	lng	0.006103515625	0.00048828125	0.999755859375	2.4122137404580153	0.015267175572519083	0.9312977099236641	0.0	0.0	0.0
2017-08-17 13:57:16.326325	lat	lng	0.001220703125	0.03466796875	1.001953125	2.2442748091603053	-0.10687022900763359	1.0534351145038168	0.0	0.0	0.0
2017-08-17 13:57:16.350053	lat	lng	-0.000244140625	0.035400390625	0.969482421875	2.183206106870229	0.015267175572519083	0.9465648854961832	0.0	0.0	0.0
2017-08-17 13:57:16.373727	lat	lng	-0.000244140625	0.0302734375	1.006591796875	2.213740458015267	-3.8931297709923665	0.8854961832061069	0.0	0.0	0.0
2017-08-17 13:57:16.398427	lat	lng	0.004150390625	0.03173828125	1.00146484375	2.4732824427480917	-0.16793893129770993	0.8244274809160306	0.0	0.0	0.0
2017-08-17 13:57:16.419030	lat	lng	0.000732421875	0.034912109375	1.010986328125	2.549618320610687	-0.13740458015267176	0.7022900763358778	0.0	0.0	0.0
2017-08-17 13:57:16.437320	lat	lng	0.003173828125	0.02783203125	1.001708984375	2.564885496183206	-0.04580152671755725	0.8702290076335878	0.0	0.0	0.0
2017-08-17 13:57:16.456637	lat	lng	0.00439453125	0.03369140625	1.005126953125	2.4122137404580153	-0.061068702290076333	0.7786259541984732	0.0	0.0	0.0
2017-08-17 13:57:16.474768	lat	lng	0.0029296875	0.037841796875	1.0029296875	2.6259541984732824	-0.015267175572519083	0.8396946564885496	0.0	0.0	0.0
2017-08-17 13:57:16.493869	lat	lng	-0.0263671875	0.02880859375	1.002197265625	2.4427480916030535	-3.8931297709923665	0.8091603053435115	0.0	0.0	0.0
2017-08-17 13:57:16.512411	lat	lng	0.000732421875	0.033447265625	0.99462890625	2.564885496183206	-0.030534351145038167	0.8396946564885496	0.0	0.0	0.0
2017-08-17 13:57:16.530460	lat	lng	0.0029296875	0.03515625	0.973388671875	2.854961832061069	0.061068702290076333	0.8091603053435115	0.0	0.0	0.0
2017-08-17 13:57:16.548808	lat	lng	0.001708984375	0.034912109375	0.99951171875	2.4732824427480917	-0.04580152671755725	0.8091603053435115	0.0	0.0	0.0
2017-08-17 13:57:16.574265	lat	lng	-0.00146484375	0.035888671875	0.9970703125	2.6259541984732824	-0.10687022900763359	1.0381679389312977	0.0	0.0	0.0
2017-08-17 13:57:16.590943	lat	lng	0.003173828125	0.034423828125	1.005859375	2.2442748091603053	0.12213740458015267	0.9312977099236641	0.0	0.0	0.0
2017-08-17 13:57:16.608245	lat	lng	0.00146484375	0.033203125	1.006591796875	2.2442748091603053	-0.030534351145038167	0.7786259541984732	0.0	0.0	0.0
2017-08-17 13:57:16.625339	lat	lng	-0.000244140625	0.033935546875	1.005615234375	2.4885496183206106	-0.030534351145038167	0.9770992366412213	0.0	0.0	0.0
2017-08-17 13:57:16.642539	lat	lng	0.002685546875	0.030029296875	1.001708984375	2.3206106870229006	0.030534351145038167	0.7938931297709924	0.0	0.0	0.0
2017-08-17 13:57:16.659601	lat	lng	0.001708984375	0.030029296875	0.996826171875	2.595419847328244	-0.10687022900763359	0.6717557251908397	0.0	0.0	0.0
2017-08-17 13:57:16.677244	lat	lng	0.0	0.032470703125	1.001953125	2.50381679389313	3.877862595419847	0.9770992366412213	0.0	0.0	0.0
2017-08-17 13:57:16.694513	lat	lng	0.001708984375	0.034912109375	1.001708984375	2.2748091603053435	0.12213740458015267	1.0381679389312977	0.0	0.0	0.0
2017-08-17 13:57:16.711783	lat	lng	-0.001220703125	0.034912109375	0.998291015625	2.6106870229007635	-0.15267175572519084	1.099236641221374	0.0	0.0	0.0
2017-08-17 13:57:16.728941	lat	lng	0.002685546875	0.0361328125	1.001953125	2.6564885496183206	-0.21374045801526717	0.7786259541984732	0.0	0.0	0.0
2017-08-17 13:57:16.746736	lat	lng	0.001708984375	0.03271484375	1.00244140625	2.33587786259542	0.0916030534351145	0.8702290076335878	0.0	0.0	0.0
2017-08-17 13:57:16.763828	lat	lng	0.0009765625	0.03125	1.0107421875	2.687022900763359	0.030534351145038167	0.8396946564885496	0.0	0.0	0.0
2017-08-17 13:57:16.781553	lat	lng	0.001953125	0.03271484375	1.00048828125	2.5343511450381677	-0.015267175572519083	0.6717557251908397	0.0	0.0	0.0
2017-08-17 13:57:16.798334	lat	lng	0.00048828125	0.03466796875	0.99658203125	2.6259541984732824	-0.04580152671755725	1.099236641221374	0.0	0.0	0.0
2017-08-17 13:57:16.815947	lat	lng	0.001220703125	0.033203125	1.0	2.6106870229007635	0.24427480916030533	0.6717557251908397	0.0	0.0	0.0
2017-08-17 13:57:16.832814	lat	lng	0.00146484375	0.03466796875	0.990234375	2.5801526717557253	-0.061068702290076333	0.9923664122137404	0.0	0.0	0.0
2017-08-17 13:57:16.850155	lat	lng	0.00341796875	0.034912109375	1.002197265625	2.564885496183206	0.061068702290076333	0.7938931297709924	0.0	0.0	0.0
2017-08-17 13:57:16.867070	lat	lng	0.00244140625	0.034912109375	0.96923828125	2.381679389312977	-0.0916030534351145	1.0229007633587786	0.0	0.0	0.0
2017-08-17 13:57:16.884732	lat	lng	0.003662109375	0.0302734375	1.004638671875	2.549618320610687	-0.030534351145038167	0.7938931297709924	0.0	0.0	0.0
2017-08-17 13:57:16.902311	lat	lng	-0.00048828125	0.033935546875	0.999755859375	2.3969465648854964	0.015267175572519083	0.9923664122137404	0.0	0.0	0.0
2017-08-17 13:57:16.922381	lat	lng	0.005615234375	0.03369140625	0.99755859375	2.5343511450381677	-0.015267175572519083	0.9312977099236641	0.0	0.0	0.0
2017-08-17 13:57:16.942291	lat	lng	-0.001220703125	0.03271484375	0.968994140625	2.381679389312977	-0.10687022900763359	0.7938931297709924	0.0	0.0	0.0
2017-08-17 13:57:16.961646	lat	lng	-0.000732421875	0.034912109375	1.00341796875	2.4427480916030535	0.061068702290076333	1.0076335877862594	0.0	0.0	0.0
2017-08-17 13:57:16.991261	lat	lng	0.001220703125	0.03369140625	1.0048828125	2.3969465648854964	0.0	0.9465648854961832	0.0	0.0	0.0
2017-08-17 13:57:17.009738	lat	lng	0.001953125	0.028564453125	1.00390625	2.564885496183206	0.0916030534351145	0.9007633587786259	0.0	0.0	0.0
2017-08-17 13:57:17.026486	lat	lng	0.00390625	0.031005859375	1.004638671875	2.16793893129771	-0.10687022900763359	0.7175572519083969	0.0	0.0	0.0
2017-08-17 13:57:17.047484	lat	lng	0.02978515625	0.031005859375	0.99658203125	2.2748091603053435	0.0	0.9312977099236641	0.0	0.0	0.0
2017-08-17 13:57:17.065145	lat	lng	-0.000732421875	0.03515625	0.996337890625	2.381679389312977	0.0916030534351145	0.8396946564885496	0.0	0.0	0.0
2017-08-17 13:57:17.087713	lat	lng	0.001708984375	0.035400390625	0.993896484375	2.4580152671755724	-0.183206106870229	0.7938931297709924	0.0	0.0	0.0
2017-08-17 13:57:17.111625	lat	lng	0.00146484375	0.03271484375	0.997802734375	2.6717557251908395	-0.15267175572519084	0.732824427480916	0.0	0.0	0.0
2017-08-17 13:57:17.140552	lat	lng	0.002685546875	0.030029296875	1.002685546875	2.2595419847328246	0.10687022900763359	0.7786259541984732	0.0	0.0	0.0
2017-08-17 13:57:17.161716	lat	lng	0.0029296875	0.032958984375	1.003662109375	2.519083969465649	-0.12213740458015267	0.8549618320610687	0.0	0.0	0.0
2017-08-17 13:57:17.182804	lat	lng	0.002197265625	0.033935546875	1.001953125	2.4580152671755724	-0.061068702290076333	0.9923664122137404	0.0	0.0	0.0
2017-08-17 13:57:17.204228	lat	lng	0.002685546875	0.03076171875	1.001708984375	2.3053435114503817	-0.030534351145038167	1.0229007633587786	0.0	0.0	0.0
2017-08-17 13:57:17.225424	lat	lng	0.003662109375	0.034423828125	0.99560546875	2.5801526717557253	-0.07633587786259542	0.7633587786259542	0.0	0.0	0.0
2017-08-17 13:57:17.246725	lat	lng	-0.0009765625	0.034912109375	0.994873046875	2.33587786259542	-0.16793893129770993	0.9618320610687023	0.0	0.0	0.0
2017-08-17 13:57:17.268512	lat	lng	0.00439453125	0.033935546875	1.005126953125	2.564885496183206	-0.32061068702290074	0.8702290076335878	0.0	0.0	0.0
2017-08-17 13:57:17.289835	lat	lng	0.001220703125	0.03271484375	1.006591796875	2.549618320610687	0.10687022900763359	1.0076335877862594	0.0	0.0	0.0
2017-08-17 13:57:17.311387	lat	lng	0.003662109375	0.02880859375	1.005615234375	2.2442748091603053	0.030534351145038167	0.732824427480916	0.0	0.0	0.0
2017-08-17 13:57:17.332411	lat	lng	0.002197265625	0.03515625	1.004150390625	2.4122137404580153	0.15267175572519084	0.9007633587786259	0.0	0.0	0.0
2017-08-17 13:57:17.353477	lat	lng	0.000732421875	0.033447265625	0.9970703125	2.366412213740458	0.10687022900763359	0.9770992366412213	0.0	0.0	0.0
2017-08-17 13:57:17.374625	lat	lng	0.00048828125	0.032470703125	1.005859375	2.381679389312977	-0.07633587786259542	0.9618320610687023	0.0	0.0	0.0
2017-08-17 13:57:17.395944	lat	lng	0.004638671875	0.033203125	0.97216796875	2.4580152671755724	0.13740458015267176	0.916030534351145	0.0	0.0	0.0
2017-08-17 13:57:17.417091	lat	lng	0.003173828125	0.03173828125	1.00244140625	2.3969465648854964	-0.13740458015267176	1.0687022900763359	0.0	0.0	0.0
2017-08-17 13:57:17.438527	lat	lng	0.00146484375	0.0322265625	0.96875	2.4122137404580153	-0.030534351145038167	0.8854961832061069	0.0	0.0	0.0
2017-08-17 13:57:17.460126	lat	lng	-0.001708984375	0.033203125	0.99658203125	2.5801526717557253	0.2748091603053435	0.9770992366412213	0.0	0.0	0.0
2017-08-17 13:57:17.481413	lat	lng	0.003662109375	0.031494140625	0.994384765625	2.183206106870229	-3.9083969465648853	0.9618320610687023	0.0	0.0	0.0
2017-08-17 13:57:17.502660	lat	lng	0.00244140625	0.03173828125	1.02978515625	2.549618320610687	3.877862595419847	0.9923664122137404	0.0	0.0	0.0
2017-08-17 13:57:17.524008	lat	lng	-0.00048828125	0.033447265625	1.0087890625	2.33587786259542	-0.1984732824427481	0.8244274809160306	0.0	0.0	0.0
2017-08-17 13:57:17.545273	lat	lng	0.002685546875	0.0322265625	1.003173828125	2.4885496183206106	0.061068702290076333	0.6717557251908397	0.0	0.0	0.0
2017-08-17 13:57:17.566599	lat	lng	-0.000244140625	0.0302734375	1.005859375	2.3969465648854964	-0.0916030534351145	0.7786259541984732	0.0	0.0	0.0
2017-08-17 13:57:17.588362	lat	lng	0.001953125	0.033935546875	1.030029296875	2.4732824427480917	0.1984732824427481	0.9770992366412213	0.0	0.0	0.0
2017-08-17 13:57:17.610075	lat	lng	0.001953125	0.03466796875	1.00634765625	2.519083969465649	-0.16793893129770993	1.1603053435114503	0.0	0.0	0.0
2017-08-17 13:57:17.631253	lat	lng	0.00048828125	0.06103515625	1.0009765625	2.519083969465649	-0.1984732824427481	0.916030534351145	0.0	0.0	0.0
2017-08-17 13:57:17.652300	lat	lng	0.003662109375	0.062255859375	0.99755859375	2.549618320610687	-0.10687022900763359	0.6717557251908397	0.0	0.0	0.0
2017-08-17 13:57:17.673263	lat	lng	0.003662109375	0.033935546875	1.0	2.183206106870229	-0.030534351145038167	0.7938931297709924	0.0	0.0	0.0
2017-08-17 13:57:17.694432	lat	lng	0.00244140625	0.040283203125	1.00146484375	2.519083969465649	0.061068702290076333	0.8244274809160306	0.0	0.0	0.0
2017-08-17 13:57:17.715896	lat	lng	0.005859375	0.033935546875	1.005859375	2.2900763358778624	0.04580152671755725	0.9770992366412213	0.0	0.0	0.0
2017-08-17 13:57:17.737064	lat	lng	0.0009765625	0.062255859375	1.00244140625	2.427480916030534	0.12213740458015267	0.7938931297709924	0.0	0.0	0.0
2017-08-17 13:57:17.758227	lat	lng	0.002685546875	0.03173828125	0.995849609375	2.33587786259542	3.8473282442748094	0.7633587786259542	0.0	0.0	0.0
2017-08-17 13:57:17.779113	lat	lng	0.00146484375	0.03466796875	0.999755859375	2.564885496183206	0.12213740458015267	0.7633587786259542	0.0	0.0	0.0
2017-08-17 13:57:17.799698	lat	lng	0.003173828125	0.03271484375	1.006103515625	2.4122137404580153	-3.8931297709923665	1.0229007633587786	0.0	0.0	0.0
2017-08-17 13:57:17.820529	lat	lng	0.0029296875	0.031494140625	1.000732421875	2.763358778625954	-0.12213740458015267	0.8702290076335878	0.0	0.0	0.0
2017-08-17 13:57:17.840959	lat	lng	0.002197265625	0.033935546875	0.997802734375	2.2900763358778624	-0.13740458015267176	0.9312977099236641	0.0	0.0	0.0
2017-08-17 13:57:17.864968	lat	lng	0.00244140625	0.03076171875	1.00341796875	2.519083969465649	-0.10687022900763359	0.7633587786259542	0.0	0.0	0.0
2017-08-17 13:57:17.889139	lat	lng	0.001953125	0.032958984375	1.0009765625	2.3206106870229006	-0.2900763358778626	0.7786259541984732	0.0	0.0	0.0
2017-08-17 13:57:17.913588	lat	lng	0.00537109375	0.032470703125	0.999755859375	2.50381679389313	0.2748091603053435	1.0381679389312977	0.0	0.0	0.0
2017-08-17 13:57:17.938966	lat	lng	0.00439453125	0.0341796875	0.997314453125	2.16793893129771	0.030534351145038167	0.7175572519083969	0.0	0.0	0.0
2017-08-17 13:57:17.966452	lat	lng	0.0029296875	0.031005859375	0.969482421875	2.2442748091603053	0.15267175572519084	1.0534351145038168	0.0	0.0	0.0
2017-08-17 13:57:17.991226	lat	lng	-0.001708984375	0.03662109375	1.0068359375	2.1526717557251906	0.16793893129770993	0.9312977099236641	0.0	0.0	0.0
2017-08-17 13:57:18.018497	lat	lng	0.002197265625	0.03173828125	1.005126953125	2.33587786259542	0.015267175572519083	0.6870229007633588	0.0	0.0	0.0
2017-08-17 13:57:18.040665	lat	lng	0.00146484375	0.036865234375	0.998046875	2.4885496183206106	-0.10687022900763359	0.9465648854961832	0.0	0.0	0.0
2017-08-17 13:57:18.064277	lat	lng	0.003173828125	0.031494140625	1.004638671875	2.3206106870229006	-0.13740458015267176	0.9007633587786259	0.0	0.0	0.0
2017-08-17 13:57:18.085428	lat	lng	0.00244140625	0.03369140625	1.001953125	2.50381679389313	-0.07633587786259542	0.8702290076335878	0.0	0.0	0.0
2017-08-17 13:57:18.106385	lat	lng	0.004638671875	0.0361328125	1.00048828125	2.427480916030534	-0.0916030534351145	0.9007633587786259	0.0	0.0	0.0
2017-08-17 13:57:18.128431	lat	lng	0.0	0.03369140625	1.00146484375	2.427480916030534	-0.07633587786259542	0.7633587786259542	0.0	0.0	0.0
2017-08-17 13:57:18.149409	lat	lng	0.00048828125	0.03515625	0.998779296875	2.2442748091603053	0.061068702290076333	0.8396946564885496	0.0	0.0	0.0
2017-08-17 13:57:18.176476	lat	lng	-0.000732421875	0.032958984375	0.99755859375	2.2595419847328246	-0.061068702290076333	0.9312977099236641	0.0	0.0	0.0
2017-08-17 13:57:18.197204	lat	lng	0.00048828125	0.03466796875	1.005615234375	2.2900763358778624	0.015267175572519083	0.916030534351145	0.0	0.0	0.0
2017-08-17 13:57:18.219109	lat	lng	0.0048828125	0.03466796875	0.99755859375	2.3206106870229006	-0.015267175572519083	0.8396946564885496	0.0	0.0	0.0
2017-08-17 13:57:18.242296	lat	lng	0.005859375	0.0322265625	1.005859375	2.381679389312977	-0.061068702290076333	1.1755725190839694	0.0	0.0	0.0
2017-08-17 13:57:18.263382	lat	lng	0.001220703125	0.033447265625	1.0068359375	2.549618320610687	-0.24427480916030533	0.8549618320610687	0.0	0.0	0.0
2017-08-17 13:57:18.284677	lat	lng	0.00244140625	0.03564453125	1.00390625	2.4580152671755724	-0.12213740458015267	0.7938931297709924	0.0	0.0	0.0
2017-08-17 13:57:18.306264	lat	lng	0.00439453125	0.031494140625	1.00732421875	2.50381679389313	-0.061068702290076333	0.916030534351145	0.0	0.0	0.0
2017-08-17 13:57:18.327922	lat	lng	0.002197265625	0.037353515625	1.001708984375	2.213740458015267	0.030534351145038167	0.7480916030534351	0.0	0.0	0.0
2017-08-17 13:57:18.353773	lat	lng	0.004638671875	0.034912109375	0.9970703125	2.427480916030534	0.0	0.8854961832061069	0.0	0.0	0.0
2017-08-17 13:57:18.378554	lat	lng	0.0	0.032958984375	0.99462890625	2.351145038167939	0.2595419847328244	0.7786259541984732	0.0	0.0	0.0
2017-08-17 13:57:18.402559	lat	lng	-0.02880859375	0.031982421875	0.999755859375	2.3206106870229006	0.0	0.9618320610687023	0.0	0.0	0.0
2017-08-17 13:57:18.431070	lat	lng	0.000732421875	0.06201171875	1.001220703125	2.4122137404580153	-0.061068702290076333	0.7175572519083969	0.0	0.0	0.0
2017-08-17 13:57:18.454702	lat	lng	0.00244140625	0.03271484375	1.001708984375	2.4122137404580153	-0.061068702290076333	0.6870229007633588	0.0	0.0	0.0
2017-08-17 13:57:18.476213	lat	lng	0.001708984375	0.029541015625	1.00390625	2.5343511450381677	-3.9083969465648853	0.8091603053435115	0.0	0.0	0.0
2017-08-17 13:57:18.502601	lat	lng	0.003173828125	0.033203125	1.00146484375	2.5801526717557253	-0.2748091603053435	1.0687022900763359	0.0	0.0	0.0
2017-08-17 13:57:18.526731	lat	lng	0.000244140625	0.0322265625	1.002197265625	2.2595419847328246	0.07633587786259542	1.083969465648855	0.0	0.0	0.0
2017-08-17 13:57:18.557359	lat	lng	-0.00244140625	0.03076171875	0.996826171875	2.33587786259542	0.04580152671755725	0.8702290076335878	0.0	0.0	0.0
2017-08-17 13:57:18.580338	lat	lng	0.006103515625	0.033447265625	0.99609375	2.3206106870229006	-0.061068702290076333	0.8854961832061069	0.0	0.0	0.0
2017-08-17 13:57:18.609517	lat	lng	0.00439453125	0.033447265625	0.9951171875	2.4427480916030535	-0.030534351145038167	0.7786259541984732	0.0	0.0	0.0
2017-08-17 13:57:18.635130	lat	lng	0.001953125	0.03369140625	0.99658203125	2.427480916030534	-0.22900763358778625	0.916030534351145	0.0	0.0	0.0
2017-08-17 13:57:18.657748	lat	lng	0.006103515625	0.03125	0.998046875	2.3969465648854964	0.04580152671755725	0.8854961832061069	0.0	0.0	0.0
2017-08-17 13:57:18.680050	lat	lng	0.003662109375	0.03125	0.996337890625	2.564885496183206	3.8931297709923665	1.1297709923664123	0.0	0.0	0.0
2017-08-17 13:57:18.701954	lat	lng	0.004638671875	0.031982421875	1.0087890625	2.3969465648854964	0.07633587786259542	1.0229007633587786	0.0	0.0	0.0
2017-08-17 13:57:18.723362	lat	lng	0.003662109375	0.034423828125	1.00390625	2.3053435114503817	0.061068702290076333	0.8091603053435115	0.0	0.0	0.0
2017-08-17 13:57:18.746024	lat	lng	0.001708984375	0.033447265625	1.002685546875	2.5343511450381677	3.8931297709923665	0.6717557251908397	0.0	0.0	0.0
2017-08-17 13:57:18.766936	lat	lng	0.000244140625	0.03369140625	0.996337890625	2.6106870229007635	0.04580152671755725	0.7175572519083969	0.0	0.0	0.0
2017-08-17 13:57:18.790208	lat	lng	-0.000244140625	0.033935546875	1.000244140625	2.2748091603053435	-0.04580152671755725	0.8244274809160306	0.0	0.0	0.0
2017-08-17 13:57:18.819249	lat	lng	-0.030517578125	0.032958984375	1.001220703125	2.564885496183206	-0.15267175572519084	0.7480916030534351	0.0	0.0	0.0
2017-08-17 13:57:18.840991	lat	lng	0.00390625	0.0341796875	1.00146484375	2.3206106870229006	-3.877862595419847	0.7022900763358778	0.0	0.0	0.0
2017-08-17 13:57:18.864310	lat	lng	0.001953125	0.03076171875	1.003662109375	2.351145038167939	-0.10687022900763359	0.8244274809160306	0.0	0.0	0.0
2017-08-17 13:57:18.887530	lat	lng	0.001220703125	0.031494140625	0.99853515625	2.3206106870229006	-0.07633587786259542	0.8854961832061069	0.0	0.0	0.0
2017-08-17 13:57:18.911040	lat	lng	0.0029296875	0.037353515625	1.003662109375	2.4427480916030535	-0.015267175572519083	1.0687022900763359	0.0	0.0	0.0
2017-08-17 13:57:18.936091	lat	lng	0.00341796875	0.032470703125	1.00244140625	2.5343511450381677	-0.030534351145038167	0.7633587786259542	0.0	0.0	0.0
2017-08-17 13:57:18.959128	lat	lng	-0.000244140625	0.032470703125	1.029296875	2.564885496183206	0.015267175572519083	0.916030534351145	0.0	0.0	0.0
2017-08-17 13:57:18.982930	lat	lng	0.03076171875	0.031982421875	1.00244140625	2.4885496183206106	0.0916030534351145	1.099236641221374	0.0	0.0	0.0
2017-08-17 13:57:19.006715	lat	lng	0.001220703125	0.029052734375	0.999267578125	2.351145038167939	0.030534351145038167	0.8549618320610687	0.0	0.0	0.0
2017-08-17 13:57:19.030585	lat	lng	0.00341796875	0.034423828125	1.004150390625	2.4580152671755724	0.183206106870229	0.7480916030534351	0.0	0.0	0.0
2017-08-17 13:57:19.054491	lat	lng	-0.03125	0.03466796875	1.000244140625	2.549618320610687	0.13740458015267176	0.7938931297709924	0.0	0.0	0.0
2017-08-17 13:57:19.077704	lat	lng	0.000732421875	0.03125	1.001220703125	2.3969465648854964	-0.10687022900763359	0.7786259541984732	0.0	0.0	0.0
2017-08-17 13:57:19.101129	lat	lng	0.003662109375	0.03564453125	1.002197265625	2.3969465648854964	-0.015267175572519083	0.9007633587786259	0.0	0.0	0.0
2017-08-17 13:57:19.127663	lat	lng	0.001953125	0.0283203125	0.998291015625	2.0763358778625953	0.10687022900763359	0.916030534351145	0.0	0.0	0.0
2017-08-17 13:57:19.159545	lat	lng	-0.001220703125	0.03125	1.02734375	2.366412213740458	0.04580152671755725	1.099236641221374	0.0	0.0	0.0
2017-08-17 13:57:19.183523	lat	lng	0.0009765625	0.03515625	0.970458984375	2.427480916030534	0.2748091603053435	0.7938931297709924	0.0	0.0	0.0
2017-08-17 13:57:19.207056	lat	lng	0.00048828125	0.033203125	0.99951171875	2.427480916030534	-0.183206106870229	1.0229007633587786	0.0	0.0	0.0
2017-08-17 13:57:19.231036	lat	lng	0.00244140625	0.03564453125	0.9970703125	2.1374045801526718	-0.366412213740458	0.9770992366412213	0.0	0.0	0.0
2017-08-17 13:57:19.256651	lat	lng	0.002197265625	0.03466796875	1.0009765625	2.5343511450381677	-0.04580152671755725	0.8854961832061069	0.0	0.0	0.0
2017-08-17 13:57:19.284607	lat	lng	0.00390625	0.03271484375	0.998291015625	2.5801526717557253	-0.0916030534351145	0.8244274809160306	0.0	0.0	0.0
2017-08-17 13:57:19.306277	lat	lng	0.005859375	0.03564453125	1.026611328125	2.427480916030534	-0.030534351145038167	0.7938931297709924	0.0	0.0	0.0
2017-08-17 13:57:19.329150	lat	lng	0.00146484375	0.0322265625	1.030517578125	2.4427480916030535	-0.21374045801526717	1.0534351145038168	0.0	0.0	0.0
2017-08-17 13:57:19.351746	lat	lng	0.003662109375	0.031982421875	1.005126953125	2.564885496183206	-0.3053435114503817	0.9465648854961832	0.0	0.0	0.0
2017-08-17 13:57:19.379750	lat	lng	-0.03076171875	0.03125	0.99951171875	2.4427480916030535	-0.07633587786259542	0.9770992366412213	0.0	0.0	0.0
2017-08-17 13:57:19.400182	lat	lng	0.001953125	0.02880859375	0.999267578125	2.3206106870229006	0.12213740458015267	0.7633587786259542	0.0	0.0	0.0
2017-08-17 13:57:19.421274	lat	lng	0.0048828125	0.035400390625	0.996826171875	2.4580152671755724	-0.13740458015267176	0.9618320610687023	0.0	0.0	0.0
2017-08-17 13:57:19.448368	lat	lng	0.00146484375	0.033447265625	1.0029296875	2.427480916030534	-0.12213740458015267	0.7633587786259542	0.0	0.0	0.0
2017-08-17 13:57:19.470126	lat	lng	-0.000244140625	0.033447265625	0.99609375	2.427480916030534	-0.3053435114503817	0.6870229007633588	0.0	0.0	0.0
2017-08-17 13:57:19.498461	lat	lng	0.004638671875	0.033935546875	1.003662109375	2.3969465648854964	-0.07633587786259542	0.7938931297709924	0.0	0.0	0.0
2017-08-17 13:57:19.519347	lat	lng	0.00390625	0.034912109375	0.9990234375	2.3969465648854964	-0.07633587786259542	0.5801526717557252	0.0	0.0	0.0
2017-08-17 13:57:19.554214	lat	lng	0.003662109375	0.03271484375	1.004638671875	2.2290076335877864	0.030534351145038167	0.9618320610687023	0.0	0.0	0.0
2017-08-17 13:57:19.577669	lat	lng	0.004638671875	0.03076171875	1.00390625	2.4427480916030535	-0.10687022900763359	0.8854961832061069	0.0	0.0	0.0
2017-08-17 13:57:19.605991	lat	lng	0.003173828125	0.033203125	1.0009765625	2.4427480916030535	-3.877862595419847	0.7480916030534351	0.0	0.0	0.0
2017-08-17 13:57:19.629345	lat	lng	0.001708984375	0.03662109375	0.99853515625	2.2900763358778624	-0.24427480916030533	1.0076335877862594	0.0	0.0	0.0
2017-08-17 13:57:19.654957	lat	lng	0.00244140625	0.034912109375	1.029541015625	2.2595419847328246	0.12213740458015267	0.8549618320610687	0.0	0.0	0.0
2017-08-17 13:57:19.675431	lat	lng	0.00146484375	0.031494140625	0.9697265625	2.4580152671755724	0.015267175572519083	0.8244274809160306	0.0	0.0	0.0
2017-08-17 13:57:19.700812	lat	lng	0.0068359375	0.031982421875	0.99755859375	2.4580152671755724	-0.13740458015267176	0.9465648854961832	0.0	0.0	0.0
2017-08-17 13:57:19.721923	lat	lng	-0.000244140625	0.032470703125	0.998291015625	2.4885496183206106	-3.9083969465648853	0.9618320610687023	0.0	0.0	0.0
2017-08-17 13:57:19.742848	lat	lng	0.005126953125	0.034912109375	1.000244140625	2.4885496183206106	-0.030534351145038167	0.9312977099236641	0.0	0.0	0.0
2017-08-17 13:57:19.765283	lat	lng	-0.027099609375	0.03466796875	0.995849609375	2.5343511450381677	-0.015267175572519083	0.9465648854961832	0.0	0.0	0.0
2017-08-17 13:57:19.786399	lat	lng	0.002197265625	0.03173828125	1.00244140625	2.183206106870229	0.07633587786259542	0.6717557251908397	0.0	0.0	0.0
2017-08-17 13:57:19.807788	lat	lng	0.001220703125	0.03271484375	1.001220703125	2.6106870229007635	-0.183206106870229	0.8244274809160306	0.0	0.0	0.0
2017-08-17 13:57:19.828999	lat	lng	0.00537109375	0.03369140625	1.003173828125	2.4580152671755724	0.061068702290076333	0.8244274809160306	0.0	0.0	0.0
2017-08-17 13:57:19.849804	lat	lng	0.0048828125	0.031494140625	1.00341796875	2.4885496183206106	-0.10687022900763359	0.9770992366412213	0.0	0.0	0.0
2017-08-17 13:57:19.873193	lat	lng	0.002197265625	0.030517578125	1.000244140625	2.3969465648854964	-0.32061068702290074	0.7938931297709924	0.0	0.0	0.0
2017-08-17 13:57:19.894502	lat	lng	0.0048828125	0.03076171875	0.99755859375	2.4885496183206106	-0.10687022900763359	0.8702290076335878	0.0	0.0	0.0
2017-08-17 13:57:19.920579	lat	lng	0.005126953125	0.03369140625	1.00341796875	2.2290076335877864	-0.13740458015267176	1.0076335877862594	0.0	0.0	0.0
2017-08-17 13:57:19.941837	lat	lng	0.005126953125	0.02880859375	1.004150390625	2.5343511450381677	-0.10687022900763359	0.732824427480916	0.0	0.0	0.0
2017-08-17 13:57:19.964658	lat	lng	0.005859375	0.030029296875	0.99951171875	2.2595419847328246	-0.3053435114503817	0.916030534351145	0.0	0.0	0.0
2017-08-17 13:57:19.986690	lat	lng	0.00146484375	0.03271484375	0.998291015625	2.5343511450381677	0.0916030534351145	0.7633587786259542	0.0	0.0	0.0
2017-08-17 13:57:20.008474	lat	lng	0.029541015625	0.031494140625	1.00439453125	2.33587786259542	0.13740458015267176	1.0076335877862594	0.0	0.0	0.0
2017-08-17 13:57:20.031138	lat	lng	0.00439453125	0.035888671875	1.000732421875	2.427480916030534	-0.22900763358778625	0.8244274809160306	0.0	0.0	0.0
2017-08-17 13:57:20.053312	lat	lng	-0.0009765625	0.036376953125	0.970947265625	2.2900763358778624	0.0	0.9007633587786259	0.0	0.0	0.0
2017-08-17 13:57:20.082511	lat	lng	0.002197265625	0.0341796875	0.998779296875	2.3969465648854964	-0.33587786259541985	0.9007633587786259	0.0	0.0	0.0
2017-08-17 13:57:20.103342	lat	lng	0.00048828125	0.031982421875	0.9990234375	2.2290076335877864	0.030534351145038167	1.1297709923664123	0.0	0.0	0.0
2017-08-17 13:57:20.125197	lat	lng	0.0068359375	0.03125	0.99853515625	2.351145038167939	-0.04580152671755725	0.9312977099236641	0.0	0.0	0.0
2017-08-17 13:57:20.147079	lat	lng	0.00634765625	0.032958984375	1.006591796875	2.519083969465649	-0.061068702290076333	0.9770992366412213	0.0	0.0	0.0
2017-08-17 13:57:20.168537	lat	lng	-0.02783203125	0.034423828125	1.007568359375	2.7022900763358777	0.061068702290076333	0.732824427480916	0.0	0.0	0.0
2017-08-17 13:57:20.198680	lat	lng	-0.00048828125	0.0302734375	1.0068359375	2.4122137404580153	0.2748091603053435	0.732824427480916	0.0	0.0	0.0
2017-08-17 13:57:20.220212	lat	lng	0.00146484375	0.03173828125	1.00390625	2.50381679389313	-3.9083969465648853	0.9770992366412213	0.0	0.0	0.0
2017-08-17 13:57:20.241113	lat	lng	0.00341796875	0.06201171875	1.002197265625	2.381679389312977	-0.061068702290076333	0.9618320610687023	0.0	0.0	0.0
2017-08-17 13:57:20.261020	lat	lng	0.002685546875	0.037109375	1.0029296875	2.5801526717557253	-0.061068702290076333	0.8702290076335878	0.0	0.0	0.0
2017-08-17 13:57:20.278535	lat	lng	-0.0029296875	0.031982421875	1.008056640625	2.2900763358778624	-0.07633587786259542	0.6564885496183206	0.0	0.0	0.0
2017-08-17 13:57:20.297648	lat	lng	0.001953125	0.032958984375	1.005859375	2.3969465648854964	-0.16793893129770993	0.8396946564885496	0.0	0.0	0.0
2017-08-17 13:57:20.314485	lat	lng	0.00048828125	0.034423828125	0.9970703125	2.2900763358778624	0.030534351145038167	0.7175572519083969	0.0	0.0	0.0
2017-08-17 13:57:20.331976	lat	lng	-0.001220703125	0.0341796875	0.99609375	2.6717557251908395	0.10687022900763359	0.9312977099236641	0.0	0.0	0.0
2017-08-17 13:57:20.348686	lat	lng	0.002685546875	0.03125	1.0	2.549618320610687	0.04580152671755725	0.9007633587786259	0.0	0.0	0.0
2017-08-17 13:57:20.367476	lat	lng	0.001953125	0.029541015625	1.001220703125	2.2748091603053435	-3.9083969465648853	0.8396946564885496	0.0	0.0	0.0
2017-08-17 13:57:20.386365	lat	lng	0.00439453125	0.032958984375	1.001708984375	2.33587786259542	-0.0916030534351145	0.7786259541984732	0.0	0.0	0.0
2017-08-17 13:57:20.404927	lat	lng	0.0	0.033935546875	1.0009765625	2.427480916030534	0.04580152671755725	0.8549618320610687	0.0	0.0	0.0
2017-08-17 13:57:20.421619	lat	lng	-0.00048828125	0.03466796875	1.0	2.427480916030534	-0.04580152671755725	0.7938931297709924	0.0	0.0	0.0
2017-08-17 13:57:20.439066	lat	lng	0.001953125	0.03466796875	1.003662109375	2.33587786259542	-0.04580152671755725	0.8702290076335878	0.0	0.0	0.0
2017-08-17 13:57:20.456196	lat	lng	0.03076171875	0.0361328125	1.000244140625	2.595419847328244	0.0	0.8854961832061069	0.0	0.0	0.0
2017-08-17 13:57:20.474105	lat	lng	0.00048828125	0.03466796875	1.007080078125	2.2442748091603053	-0.2900763358778626	0.8549618320610687	0.0	0.0	0.0
2017-08-17 13:57:20.491458	lat	lng	0.0029296875	0.03466796875	0.975341796875	2.198473282442748	-0.183206106870229	0.9465648854961832	0.0	0.0	0.0
2017-08-17 13:57:20.511781	lat	lng	0.00390625	0.033447265625	1.0048828125	2.381679389312977	0.015267175572519083	0.7633587786259542	0.0	0.0	0.0
2017-08-17 13:57:20.528493	lat	lng	0.003173828125	0.03271484375	1.003662109375	2.50381679389313	-0.061068702290076333	0.9465648854961832	0.0	0.0	0.0
2017-08-17 13:57:20.546415	lat	lng	-0.00048828125	0.029296875	0.99560546875	2.6717557251908395	-0.15267175572519084	0.7480916030534351	0.0	0.0	0.0
2017-08-17 13:57:20.563726	lat	lng	0.004150390625	0.034912109375	0.99853515625	2.5801526717557253	-0.21374045801526717	0.9007633587786259	0.0	0.0	0.0
2017-08-17 13:57:20.582160	lat	lng	-0.000244140625	0.03564453125	1.00048828125	2.4732824427480917	-0.030534351145038167	0.7786259541984732	0.0	0.0	0.0
2017-08-17 13:57:20.599274	lat	lng	0.00390625	0.034912109375	0.969482421875	2.5343511450381677	0.015267175572519083	0.8702290076335878	0.0	0.0	0.0
2017-08-17 13:57:20.617432	lat	lng	0.0048828125	0.035400390625	1.0048828125	2.6259541984732824	-0.10687022900763359	0.916030534351145	0.0	0.0	0.0
2017-08-17 13:57:20.634956	lat	lng	-0.0302734375	0.034423828125	1.000244140625	2.366412213740458	0.04580152671755725	0.8549618320610687	0.0	0.0	0.0
2017-08-17 13:57:20.652933	lat	lng	0.002197265625	0.034423828125	0.999267578125	2.4885496183206106	-0.13740458015267176	0.7175572519083969	0.0	0.0	0.0
2017-08-17 13:57:20.670160	lat	lng	0.003173828125	0.000732421875	1.00146484375	2.2748091603053435	0.015267175572519083	0.7938931297709924	0.0	0.0	0.0
2017-08-17 13:57:20.689355	lat	lng	-0.00146484375	0.033935546875	1.00732421875	2.7938931297709924	0.15267175572519084	0.916030534351145	0.0	0.0	0.0
2017-08-17 13:57:20.706124	lat	lng	0.0048828125	0.033447265625	1.002685546875	2.6259541984732824	-0.1984732824427481	0.8244274809160306	0.0	0.0	0.0
2017-08-17 13:57:20.724060	lat	lng	0.00244140625	0.03271484375	0.99755859375	2.4122137404580153	0.0	0.7938931297709924	0.0	0.0	0.0
2017-08-17 13:57:20.740917	lat	lng	0.000244140625	0.031982421875	1.00439453125	2.50381679389313	0.061068702290076333	0.8854961832061069	0.0	0.0	0.0
2017-08-17 13:57:20.760045	lat	lng	0.031005859375	0.03369140625	1.00732421875	2.351145038167939	0.0916030534351145	1.099236641221374	0.0	0.0	0.0
2017-08-17 13:57:20.777451	lat	lng	0.00439453125	0.03564453125	1.00244140625	2.4580152671755724	0.030534351145038167	0.7480916030534351	0.0	0.0	0.0
2017-08-17 13:57:20.795164	lat	lng	0.00341796875	0.033203125	1.00537109375	2.33587786259542	-0.2900763358778626	0.7633587786259542	0.0	0.0	0.0
2017-08-17 13:57:20.812371	lat	lng	-0.00048828125	0.035400390625	1.007568359375	2.5343511450381677	-0.12213740458015267	1.0229007633587786	0.0	0.0	0.0
2017-08-17 13:57:20.829997	lat	lng	-0.002197265625	0.0302734375	1.005859375	2.3969465648854964	0.07633587786259542	1.0076335877862594	0.0	0.0	0.0
2017-08-17 13:57:20.847172	lat	lng	0.006103515625	0.03515625	1.00244140625	2.33587786259542	-0.061068702290076333	0.7786259541984732	0.0	0.0	0.0
2017-08-17 13:57:20.865065	lat	lng	0.003173828125	0.03076171875	0.993896484375	2.6106870229007635	0.015267175572519083	0.916030534351145	0.0	0.0	0.0
2017-08-17 13:57:20.882005	lat	lng	-0.00146484375	0.034423828125	0.991943359375	2.4732824427480917	-0.015267175572519083	0.6564885496183206	0.0	0.0	0.0
2017-08-17 13:57:20.900335	lat	lng	0.00341796875	0.028564453125	1.001953125	2.33587786259542	-0.15267175572519084	0.8702290076335878	0.0	0.0	0.0
2017-08-17 13:57:20.917448	lat	lng	0.000732421875	0.033447265625	1.00048828125	2.50381679389313	-0.015267175572519083	0.8396946564885496	0.0	0.0	0.0
2017-08-17 13:57:20.935761	lat	lng	-0.001708984375	0.030517578125	1.000732421875	2.4122137404580153	-0.24427480916030533	1.0229007633587786	0.0	0.0	0.0
2017-08-17 13:57:20.956523	lat	lng	0.00341796875	0.03271484375	1.005615234375	2.519083969465649	0.015267175572519083	1.0534351145038168	0.0	0.0	0.0
2017-08-17 13:57:20.979479	lat	lng	0.0029296875	0.031494140625	1.0	2.351145038167939	-0.061068702290076333	0.9770992366412213	0.0	0.0	0.0
2017-08-17 13:57:21.002031	lat	lng	-0.00048828125	0.035888671875	0.998291015625	2.4885496183206106	-0.15267175572519084	0.9007633587786259	0.0	0.0	0.0
2017-08-17 13:57:21.024195	lat	lng	0.00146484375	0.03369140625	1.005859375	2.4427480916030535	-0.12213740458015267	0.9618320610687023	0.0	0.0	0.0
2017-08-17 13:57:21.057576	lat	lng	-0.0029296875	0.0361328125	1.000732421875	2.427480916030534	0.10687022900763359	1.0229007633587786	0.0	0.0	0.0
2017-08-17 13:57:21.078410	lat	lng	0.004150390625	0.035400390625	1.004638671875	2.213740458015267	0.030534351145038167	0.9618320610687023	0.0	0.0	0.0
2017-08-17 13:57:21.099759	lat	lng	0.0009765625	0.033203125	1.001953125	2.351145038167939	-0.15267175572519084	0.8549618320610687	0.0	0.0	0.0
2017-08-17 13:57:21.121898	lat	lng	0.003662109375	0.0322265625	0.9970703125	2.3969465648854964	-0.24427480916030533	0.8091603053435115	0.0	0.0	0.0
2017-08-17 13:57:21.145361	lat	lng	0.00244140625	0.032470703125	0.99951171875	2.33587786259542	-0.030534351145038167	0.7480916030534351	0.0	0.0	0.0
2017-08-17 13:57:21.169250	lat	lng	0.003662109375	0.0341796875	0.998046875	2.4732824427480917	0.061068702290076333	1.083969465648855	0.0	0.0	0.0
2017-08-17 13:57:21.192107	lat	lng	0.001953125	0.03076171875	1.0283203125	2.6717557251908395	-0.21374045801526717	0.9618320610687023	0.0	0.0	0.0
2017-08-17 13:57:21.215700	lat	lng	0.00537109375	0.034912109375	1.007080078125	2.519083969465649	3.877862595419847	0.7938931297709924	0.0	0.0	0.0
2017-08-17 13:57:21.238654	lat	lng	-0.000244140625	0.03466796875	1.00146484375	2.4580152671755724	-0.16793893129770993	0.8396946564885496	0.0	0.0	0.0
2017-08-17 13:57:21.262152	lat	lng	0.0009765625	0.027099609375	1.001708984375	2.519083969465649	-0.16793893129770993	0.7633587786259542	0.0	0.0	0.0
2017-08-17 13:57:21.288362	lat	lng	0.00146484375	0.03271484375	1.008056640625	2.4580152671755724	0.13740458015267176	0.916030534351145	0.0	0.0	0.0
2017-08-17 13:57:21.311147	lat	lng	0.000244140625	0.03515625	0.99853515625	2.5801526717557253	0.22900763358778625	0.9312977099236641	0.0	0.0	0.0
2017-08-17 13:57:21.334425	lat	lng	0.00341796875	0.03125	0.9970703125	2.2748091603053435	0.10687022900763359	0.7633587786259542	0.0	0.0	0.0
2017-08-17 13:57:21.358864	lat	lng	-0.0009765625	0.0380859375	1.0068359375	2.198473282442748	0.04580152671755725	0.7786259541984732	0.0	0.0	0.0
2017-08-17 13:57:21.381532	lat	lng	0.00634765625	0.032470703125	1.001708984375	2.427480916030534	-0.21374045801526717	0.8702290076335878	0.0	0.0	0.0
2017-08-17 13:57:21.403320	lat	lng	-0.000244140625	0.029296875	0.999267578125	2.33587786259542	0.2595419847328244	0.8396946564885496	0.0	0.0	0.0
2017-08-17 13:57:21.424613	lat	lng	0.006103515625	0.03662109375	1.00244140625	2.4427480916030535	-0.13740458015267176	0.8854961832061069	0.0	0.0	0.0
2017-08-17 13:57:21.445892	lat	lng	0.001708984375	0.029052734375	1.001220703125	2.50381679389313	-0.0916030534351145	0.9465648854961832	0.0	0.0	0.0
2017-08-17 13:57:21.466964	lat	lng	0.00244140625	0.034912109375	0.99365234375	2.4732824427480917	-0.2595419847328244	0.8396946564885496	0.0	0.0	0.0
2017-08-17 13:57:21.489481	lat	lng	0.00341796875	0.033935546875	0.99853515625	2.366412213740458	0.0916030534351145	1.0534351145038168	0.0	0.0	0.0
2017-08-17 13:57:21.512406	lat	lng	0.00341796875	0.033447265625	0.997314453125	2.4122137404580153	-0.015267175572519083	0.9465648854961832	0.0	0.0	0.0
2017-08-17 13:57:21.540655	lat	lng	0.004150390625	0.033447265625	0.998046875	2.366412213740458	-0.061068702290076333	0.8091603053435115	0.0	0.0	0.0
2017-08-17 13:57:21.563685	lat	lng	0.004150390625	0.037841796875	0.99853515625	2.381679389312977	-0.2595419847328244	1.0381679389312977	0.0	0.0	0.0
2017-08-17 13:57:21.584881	lat	lng	0.001953125	0.03271484375	1.000732421875	2.5801526717557253	0.15267175572519084	0.7938931297709924	0.0	0.0	0.0
2017-08-17 13:57:21.606546	lat	lng	0.00390625	0.034912109375	0.999267578125	2.564885496183206	0.0	1.0687022900763359	0.0	0.0	0.0
2017-08-17 13:57:21.628915	lat	lng	0.00537109375	0.036865234375	1.000732421875	2.4732824427480917	-0.04580152671755725	1.083969465648855	0.0	0.0	0.0
2017-08-17 13:57:21.651411	lat	lng	0.001953125	0.029296875	1.003662109375	2.381679389312977	-0.13740458015267176	1.1297709923664123	0.0	0.0	0.0
2017-08-17 13:57:21.675244	lat	lng	0.00244140625	0.033935546875	1.0029296875	2.381679389312977	-0.13740458015267176	0.8854961832061069	0.0	0.0	0.0
2017-08-17 13:57:21.707839	lat	lng	0.002685546875	0.0302734375	1.0068359375	2.5343511450381677	0.030534351145038167	0.8854961832061069	0.0	0.0	0.0
2017-08-17 13:57:21.735276	lat	lng	0.00341796875	0.033447265625	0.9990234375	2.16793893129771	-0.061068702290076333	0.9618320610687023	0.0	0.0	0.0
2017-08-17 13:57:21.754595	lat	lng	0.001708984375	0.03125	0.999755859375	2.33587786259542	0.0	0.732824427480916	0.0	0.0	0.0
2017-08-17 13:57:21.771338	lat	lng	-0.000244140625	0.03515625	1.001708984375	2.6717557251908395	-0.2595419847328244	0.8702290076335878	0.0	0.0	0.0
2017-08-17 13:57:21.788230	lat	lng	0.0029296875	0.034912109375	1.004150390625	2.6412213740458017	-0.16793893129770993	1.1297709923664123	0.0	0.0	0.0
2017-08-17 13:57:21.805195	lat	lng	0.004150390625	0.036865234375	1.002685546875	2.732824427480916	-0.13740458015267176	0.8091603053435115	0.0	0.0	0.0
2017-08-17 13:57:21.822000	lat	lng	0.006103515625	0.030517578125	1.001708984375	2.549618320610687	0.10687022900763359	0.916030534351145	0.0	0.0	0.0
2017-08-17 13:57:21.843183	lat	lng	0.00146484375	0.035400390625	1.004638671875	2.4885496183206106	0.0916030534351145	0.9770992366412213	0.0	0.0	0.0
2017-08-17 13:57:21.859856	lat	lng	-0.0009765625	0.03515625	1.004638671875	2.351145038167939	0.183206106870229	1.0534351145038168	0.0	0.0	0.0
2017-08-17 13:57:21.882625	lat	lng	0.001708984375	0.031494140625	1.001708984375	2.381679389312977	0.07633587786259542	0.9923664122137404	0.0	0.0	0.0
2017-08-17 13:57:21.898985	lat	lng	0.0048828125	0.032958984375	1.005126953125	2.2442748091603053	-0.12213740458015267	0.7480916030534351	0.0	0.0	0.0
2017-08-17 13:57:21.919389	lat	lng	0.003173828125	0.032958984375	1.01318359375	2.4580152671755724	0.015267175572519083	0.9923664122137404	0.0	0.0	0.0
2017-08-17 13:57:21.938538	lat	lng	0.003662109375	0.0322265625	0.99853515625	2.2595419847328246	0.015267175572519083	1.0076335877862594	0.0	0.0	0.0
2017-08-17 13:57:21.955967	lat	lng	0.003662109375	0.03857421875	1.004638671875	2.50381679389313	-0.15267175572519084	0.8091603053435115	0.0	0.0	0.0
2017-08-17 13:57:21.978324	lat	lng	0.00146484375	0.031494140625	1.00439453125	2.595419847328244	0.07633587786259542	0.8549618320610687	0.0	0.0	0.0
2017-08-17 13:57:21.995963	lat	lng	0.0009765625	0.038818359375	0.9970703125	2.4580152671755724	3.877862595419847	1.0687022900763359	0.0	0.0	0.0
2017-08-17 13:57:22.014086	lat	lng	0.002197265625	0.033447265625	0.9970703125	2.2900763358778624	-0.04580152671755725	0.9312977099236641	0.0	0.0	0.0
2017-08-17 13:57:22.036200	lat	lng	0.005126953125	0.033935546875	1.006591796875	2.2900763358778624	-0.21374045801526717	0.9312977099236641	0.0	0.0	0.0
2017-08-17 13:57:22.053977	lat	lng	0.004150390625	0.034423828125	1.000732421875	2.366412213740458	0.04580152671755725	0.9007633587786259	0.0	0.0	0.0
2017-08-17 13:57:22.070630	lat	lng	0.0	0.0341796875	1.003173828125	2.366412213740458	-0.16793893129770993	0.8549618320610687	0.0	0.0	0.0
2017-08-17 13:57:22.088712	lat	lng	0.004150390625	0.033203125	1.002685546875	2.519083969465649	-0.04580152671755725	0.7022900763358778	0.0	0.0	0.0
2017-08-17 13:57:22.105448	lat	lng	0.0029296875	0.029296875	1.009765625	2.2442748091603053	-0.061068702290076333	0.8396946564885496	0.0	0.0	0.0
2017-08-17 13:57:22.123386	lat	lng	0.00146484375	0.03173828125	1.00146484375	2.198473282442748	0.061068702290076333	0.8396946564885496	0.0	0.0	0.0
2017-08-17 13:57:22.140841	lat	lng	0.001708984375	0.031494140625	0.970703125	2.6564885496183206	0.0916030534351145	1.1145038167938932	0.0	0.0	0.0
2017-08-17 13:57:22.165202	lat	lng	0.030517578125	0.033935546875	1.00439453125	2.519083969465649	0.15267175572519084	0.9465648854961832	0.0	0.0	0.0
2017-08-17 13:57:22.186911	lat	lng	0.00341796875	0.0322265625	1.001220703125	2.198473282442748	-0.07633587786259542	0.9465648854961832	0.0	0.0	0.0
2017-08-17 13:57:22.204264	lat	lng	0.00048828125	0.0341796875	1.00048828125	2.519083969465649	-0.12213740458015267	0.9312977099236641	0.0	0.0	0.0
2017-08-17 13:57:22.223286	lat	lng	0.001953125	0.034423828125	0.996826171875	2.4427480916030535	-0.13740458015267176	0.916030534351145	0.0	0.0	0.0
2017-08-17 13:57:22.240248	lat	lng	0.004638671875	0.0341796875	1.0009765625	2.5343511450381677	0.030534351145038167	0.9312977099236641	0.0	0.0	0.0
2017-08-17 13:57:22.258416	lat	lng	0.002685546875	0.03515625	1.002685546875	2.2748091603053435	-0.07633587786259542	0.8854961832061069	0.0	0.0	0.0
2017-08-17 13:57:22.274996	lat	lng	0.005126953125	0.029541015625	1.00244140625	2.3969465648854964	0.015267175572519083	0.9770992366412213	0.0	0.0	0.0
2017-08-17 13:57:22.292309	lat	lng	-0.002685546875	0.033935546875	1.001708984375	2.2748091603053435	-0.24427480916030533	0.5038167938931297	0.0	0.0	0.0
2017-08-17 13:57:22.308645	lat	lng	0.6298828125	0.046142578125	0.941650390625	2.33587786259542	-5.801526717557252	-1.7099236641221374	0.0	0.0	0.0
2017-08-17 13:57:22.325814	lat	lng	0.1669921875	0.112060546875	1.025146484375	2.6106870229007635	-0.12213740458015267	-5.358778625954199	0.0	0.0	0.0
2017-08-17 13:57:22.343711	lat	lng	-0.294677734375	0.16796875	0.939208984375	7.770992366412214	-5.648854961832061	-46.38167938931298	0.0	0.0	0.0
2017-08-17 13:57:22.360985	lat	lng	-0.14306640625	-0.248779296875	0.99267578125	2.931297709923664	-10.15267175572519	-1.8015267175572518	0.0	0.0	0.0
2017-08-17 13:57:22.378750	lat	lng	-0.17529296875	0.0986328125	1.03515625	0.07633587786259542	-32.67175572519084	-10.946564885496183	0.0	0.0	0.0
2017-08-17 13:57:22.395873	lat	lng	0.064208984375	0.067138671875	1.1572265625	-15.32824427480916	-57.66412213740458	-26.53435114503817	0.0	0.0	0.0
2017-08-17 13:57:22.413750	lat	lng	0.111328125	0.0263671875	1.159912109375	-63.603053435114504	-50.030534351145036	-4.793893129770993	0.0	0.0	0.0
2017-08-17 13:57:22.431186	lat	lng	0.099609375	-0.069091796875	1.146728515625	-80.56488549618321	-42.12213740458015	-16.30534351145038	0.0	0.0	0.0
2017-08-17 13:57:22.449206	lat	lng	0.150146484375	-0.03271484375	1.102294921875	-64.90076335877863	-25.16030534351145	-28.625954198473284	0.0	0.0	0.0
2017-08-17 13:57:22.471599	lat	lng	0.108154296875	-0.046142578125	0.983642578125	-82.10687022900764	-28.793893129770993	-11.83206106870229	0.0	0.0	0.0
2017-08-17 13:57:22.494956	lat	lng	0.081787109375	-0.1787109375	0.974853515625	-81.6793893129771	-7.557251908396947	-9.099236641221374	0.0	0.0	0.0
2017-08-17 13:57:22.520549	lat	lng	0.054443359375	-0.21630859375	0.930419921875	-90.07633587786259	1.7557251908396947	2.4885496183206106	0.0	0.0	0.0
2017-08-17 13:57:22.546428	lat	lng	0.052490234375	-0.1865234375	0.97216796875	-118.36641221374046	30.12213740458015	15.007633587786259	0.0	0.0	0.0
2017-08-17 13:57:22.568185	lat	lng	-0.022216796875	-0.28466796875	0.9140625	-127.20610687022901	49.48091603053435	13.389312977099237	0.0	0.0	0.0
2017-08-17 13:57:22.589385	lat	lng	0.015869140625	-0.2451171875	0.86865234375	-146.4732824427481	65.0381679389313	0.7938931297709924	0.0	0.0	0.0
2017-08-17 13:57:22.610889	lat	lng	0.057861328125	-0.339111328125	0.87255859375	-171.14503816793894	66.33587786259542	4.473282442748092	0.0	0.0	0.0
2017-08-17 13:57:22.632399	lat	lng	0.070068359375	-0.406982421875	0.84375	-146.13740458015266	48.12213740458015	12.610687022900763	0.0	0.0	0.0
2017-08-17 13:57:22.653286	lat	lng	0.067138671875	-0.448486328125	0.83544921875	-117.19083969465649	34.54961832061068	3.435114503816794	0.0	0.0	0.0
2017-08-17 13:57:22.677092	lat	lng	0.00048828125	-0.40283203125	0.82763671875	-133.2824427480916	8.15267175572519	-9.053435114503817	0.0	0.0	0.0
2017-08-17 13:57:22.698742	lat	lng	-0.002685546875	-0.44775390625	0.744140625	-141.75572519083968	-9.633587786259541	-23.541984732824428	0.0	0.0	0.0
2017-08-17 13:57:22.720903	lat	lng	-0.007568359375	-0.4716796875	0.669921875	-122.09160305343511	-2.1526717557251906	-52.30534351145038	0.0	0.0	0.0
2017-08-17 13:57:22.744502	lat	lng	0.000732421875	-0.507568359375	0.693115234375	-78.67175572519083	12.51908396946565	-52.93129770992366	0.0	0.0	0.0
2017-08-17 13:57:22.768378	lat	lng	0.05712890625	-0.51708984375	0.740234375	-22.0	15.389312977099237	-32.76335877862596	0.0	0.0	0.0
2017-08-17 13:57:22.792862	lat	lng	0.002685546875	-0.59619140625	0.580810546875	216.04580152671755	-6.717557251908397	12.564885496183207	0.0	0.0	0.0
2017-08-17 13:57:22.815895	lat	lng	-0.012939453125	-0.478271484375	0.919677734375	201.8320610687023	26.641221374045802	-15.053435114503817	0.0	0.0	0.0
2017-08-17 13:57:22.837623	lat	lng	-0.19140625	-0.276611328125	0.734130859375	-6.106870229007634	13.770992366412214	-50.06106870229008	0.0	0.0	0.0
2017-08-17 13:57:22.860318	lat	lng	0.02099609375	-0.712158203125	0.867431640625	14.351145038167939	40.48854961832061	-41.16030534351145	0.0	0.0	0.0
2017-08-17 13:57:22.877087	lat	lng	-0.123046875	-0.474853515625	0.822265625	12.595419847328245	19.282442748091604	-14.702290076335878	0.0	0.0	0.0
2017-08-17 13:57:22.893801	lat	lng	0.004638671875	-0.51220703125	0.83935546875	18.366412213740457	25.374045801526716	-1.6641221374045803	0.0	0.0	0.0
2017-08-17 13:57:22.910456	lat	lng	-0.107177734375	-0.43701171875	0.838623046875	12.885496183206106	16.27480916030534	-19.72519083969466	0.0	0.0	0.0
2017-08-17 13:57:22.927180	lat	lng	-0.0439453125	-0.55029296875	0.8359375	7.435114503816794	5.404580152671755	-15.206106870229007	0.0	0.0	0.0
2017-08-17 13:57:22.943823	lat	lng	-0.043212890625	-0.522705078125	0.8330078125	-7.801526717557252	-17.938931297709924	5.114503816793893	0.0	0.0	0.0
2017-08-17 13:57:22.960502	lat	lng	0.052001953125	-0.505859375	0.845703125	0.15267175572519084	-10.595419847328245	0.15267175572519084	0.0	0.0	0.0
2017-08-17 13:57:22.977278	lat	lng	0.077392578125	-0.533203125	0.837158203125	2.8091603053435112	-4.763358778625954	-5.4961832061068705	0.0	0.0	0.0
2017-08-17 13:57:22.993666	lat	lng	0.0234375	-0.511962890625	0.84228515625	3.480916030534351	1.2213740458015268	0.9312977099236641	0.0	0.0	0.0
2017-08-17 13:57:23.018106	lat	lng	0.026611328125	-0.49365234375	0.848388671875	12.290076335877863	9.267175572519085	-4.33587786259542	0.0	0.0	0.0
2017-08-17 13:57:23.034880	lat	lng	-0.013916015625	-0.478759765625	0.8466796875	18.732824427480917	15.587786259541986	-11.633587786259541	0.0	0.0	0.0
2017-08-17 13:57:23.051925	lat	lng	-0.060791015625	-0.48583984375	0.85205078125	27.083969465648856	18.30534351145038	-20.229007633587788	0.0	0.0	0.0
2017-08-17 13:57:23.068653	lat	lng	-0.07177734375	-0.47265625	0.8583984375	26.85496183206107	9.465648854961833	-23.557251908396946	0.0	0.0	0.0
2017-08-17 13:57:23.085590	lat	lng	-0.00830078125	-0.524169921875	0.838623046875	8.65648854961832	-11.877862595419847	-23.221374045801525	0.0	0.0	0.0
2017-08-17 13:57:23.102242	lat	lng	-0.08154296875	-0.501953125	0.818603515625	9.068702290076336	-7.7251908396946565	-6.931297709923665	0.0	0.0	0.0
2017-08-17 13:57:23.119093	lat	lng	0.060791015625	-0.511474609375	0.881103515625	13.358778625954198	6.656488549618321	-0.15267175572519084	0.0	0.0	0.0
2017-08-17 13:57:23.135507	lat	lng	0.114990234375	-0.524169921875	0.84130859375	9.17557251908397	4.290076335877862	-1.2366412213740459	0.0	0.0	0.0
2017-08-17 13:57:23.156851	lat	lng	0.09912109375	-0.4345703125	0.87109375	9.98473282442748	-0.04580152671755725	-4.885496183206107	0.0	0.0	0.0
2017-08-17 13:57:23.173825	lat	lng	-0.02001953125	-0.451416015625	0.853271484375	7.465648854961832	-0.2595419847328244	1.618320610687023	0.0	0.0	0.0
2017-08-17 13:57:23.191241	lat	lng	0.017333984375	-0.58349609375	0.846435546875	7.221374045801527	-0.4732824427480916	10.473282442748092	0.0	0.0	0.0
2017-08-17 13:57:23.210024	lat	lng	0.036376953125	-0.494384765625	0.91455078125	2.885496183206107	2.2290076335877864	27.358778625954198	0.0	0.0	0.0
2017-08-17 13:57:23.227528	lat	lng	-0.205810546875	-0.399658203125	0.84521484375	-0.549618320610687	-5.282442748091603	6.3816793893129775	0.0	0.0	0.0
2017-08-17 13:57:23.244138	lat	lng	0.0810546875	-0.474365234375	0.8994140625	-8.244274809160306	-19.31297709923664	8.335877862595419	0.0	0.0	0.0
2017-08-17 13:57:23.260529	lat	lng	0.061767578125	-0.461669921875	0.8916015625	-3.480916030534351	-1.618320610687023	4.290076335877862	0.0	0.0	0.0
2017-08-17 13:57:23.277221	lat	lng	0.017578125	-0.497314453125	0.858642578125	-0.6412213740458015	-5.022900763358779	0.8396946564885496	0.0	0.0	0.0
2017-08-17 13:57:23.293973	lat	lng	0.025390625	-0.49462890625	0.8642578125	4.290076335877862	2.9923664122137406	0.7022900763358778	0.0	0.0	0.0
2017-08-17 13:57:23.311694	lat	lng	0.021728515625	-0.4931640625	0.869873046875	4.366412213740458	3.4198473282442747	0.6259541984732825	0.0	0.0	0.0
2017-08-17 13:57:23.328380	lat	lng	0.012939453125	-0.489990234375	0.86181640625	5.435114503816794	4.732824427480916	0.8549618320610687	0.0	0.0	0.0
2017-08-17 13:57:23.345395	lat	lng	0.01708984375	-0.48876953125	0.87060546875	6.198473282442748	6.687022900763359	0.8396946564885496	0.0	0.0	0.0
2017-08-17 13:57:23.362841	lat	lng	0.025634765625	-0.473388671875	0.85986328125	7.267175572519084	10.778625954198473	-3.404580152671756	0.0	0.0	0.0
2017-08-17 13:57:23.379805	lat	lng	-0.046630859375	-0.396240234375	0.77099609375	3.2519083969465647	-1.3893129770992367	-8.580152671755725	0.0	0.0	0.0
2017-08-17 13:57:23.396590	lat	lng	0.00439453125	-0.4921875	0.861572265625	3.9236641221374047	0.33587786259541985	-8.610687022900763	0.0	0.0	0.0
2017-08-17 13:57:23.413456	lat	lng	0.006103515625	-0.480224609375	0.852783203125	3.5877862595419847	-0.4122137404580153	-7.145038167938932	0.0	0.0	0.0
2017-08-17 13:57:23.430786	lat	lng	0.00830078125	-0.45654296875	0.856689453125	3.83206106870229	-0.15267175572519084	-9.923664122137405	0.0	0.0	0.0
2017-08-17 13:57:23.452644	lat	lng	-0.013671875	-0.535400390625	0.87060546875	3.5114503816793894	0.10687022900763359	-2.8091603053435112	0.0	0.0	0.0
2017-08-17 13:57:23.469464	lat	lng	0.005126953125	-0.48486328125	0.86181640625	2.6412213740458017	-0.2900763358778626	0.6259541984732825	0.0	0.0	0.0
2017-08-17 13:57:23.486550	lat	lng	0.011962890625	-0.4765625	0.8583984375	2.366412213740458	0.16793893129770993	0.15267175572519084	0.0	0.0	0.0
2017-08-17 13:57:23.504848	lat	lng	0.0185546875	-0.44873046875	0.87939453125	3.435114503816794	0.12213740458015267	-2.2900763358778624	0.0	0.0	0.0
2017-08-17 13:57:23.522026	lat	lng	-0.0009765625	-0.48876953125	0.8662109375	4.763358778625954	0.061068702290076333	-2.030534351145038	0.0	0.0	0.0
2017-08-17 13:57:23.538723	lat	lng	0.0107421875	-0.47216796875	0.876708984375	2.4122137404580153	0.061068702290076333	0.8854961832061069	0.0	0.0	0.0
2017-08-17 13:57:23.556323	lat	lng	-0.00048828125	-0.47802734375	0.87353515625	1.3282442748091603	-2.9160305343511452	1.816793893129771	0.0	0.0	0.0
2017-08-17 13:57:23.577039	lat	lng	0.011474609375	-0.481201171875	0.864990234375	3.801526717557252	0.5343511450381679	4.366412213740458	0.0	0.0	0.0
2017-08-17 13:57:23.600553	lat	lng	-0.01611328125	-0.377685546875	0.8681640625	3.9236641221374047	-3.969465648854962	-3.6793893129770994	0.0	0.0	0.0
2017-08-17 13:57:23.622996	lat	lng	0.053955078125	-0.42529296875	0.931640625	22.412213740458014	-5.1603053435114505	-13.236641221374045	0.0	0.0	0.0
2017-08-17 13:57:23.646507	lat	lng	0.040771484375	-0.561767578125	0.849609375	17.435114503816795	0.3816793893129771	1.3893129770992367	0.0	0.0	0.0
2017-08-17 13:57:23.669108	lat	lng	0.004150390625	-0.46337890625	0.87451171875	10.427480916030534	-0.4122137404580153	3.572519083969466	0.0	0.0	0.0
2017-08-17 13:57:23.706990	lat	lng	0.00537109375	-0.4755859375	0.893310546875	11.450381679389313	0.061068702290076333	2.4732824427480917	0.0	0.0	0.0
2017-08-17 13:57:23.734879	lat	lng	0.010498046875	-0.4482421875	0.885009765625	9.755725190839694	0.16793893129770993	2.900763358778626	0.0	0.0	0.0
2017-08-17 13:57:23.755733	lat	lng	-0.000244140625	-0.453125	0.905029296875	11.297709923664122	0.7633587786259542	3.3893129770992365	0.0	0.0	0.0
2017-08-17 13:57:23.782573	lat	lng	0.017333984375	-0.447509765625	0.8828125	2.5343511450381677	0.030534351145038167	0.7480916030534351	0.0	0.0	0.0
2017-08-17 13:57:23.804250	lat	lng	0.01171875	-0.4482421875	0.87939453125	2.4427480916030535	0.0	0.9618320610687023	167.4	117.0	-69.0
2017-08-17 13:57:23.832920	lat	lng	0.01611328125	-0.447265625	0.885986328125	2.4580152671755724	-3.8931297709923665	0.732824427480916	167.4	117.0	-69.0
2017-08-17 13:57:23.855281	lat	lng	0.01171875	-0.45361328125	0.875244140625	2.33587786259542	-0.13740458015267176	0.6717557251908397	167.4	117.0	-69.0
2017-08-17 13:57:23.877723	lat	lng	0.00732421875	-0.45361328125	0.877685546875	2.595419847328244	0.13740458015267176	0.9465648854961832	167.4	117.0	-69.0
2017-08-17 13:57:23.899054	lat	lng	0.011962890625	-0.45068359375	0.87841796875	2.5801526717557253	3.877862595419847	1.0687022900763359	167.4	117.0	-69.0
2017-08-17 13:57:23.922262	lat	lng	0.009521484375	-0.449951171875	0.8837890625	2.687022900763359	0.0	1.0076335877862594	167.4	117.0	-69.0
2017-08-17 13:57:23.943120	lat	lng	0.01025390625	-0.456787109375	0.88720703125	2.6259541984732824	-0.22900763358778625	0.732824427480916	167.4	117.0	-69.0
2017-08-17 13:57:23.964056	lat	lng	0.00830078125	-0.45263671875	0.86767578125	2.4122137404580153	0.3053435114503817	0.9312977099236641	167.4	117.0	-69.0
2017-08-17 13:57:23.986314	lat	lng	0.01025390625	-0.451416015625	0.872314453125	2.50381679389313	0.1984732824427481	0.8854961832061069	167.4	117.0	-69.0
2017-08-17 13:57:24.009849	lat	lng	0.009033203125	-0.455810546875	0.884765625	2.3053435114503817	-0.22900763358778625	0.8396946564885496	167.4	117.0	-69.0
2017-08-17 13:57:24.038041	lat	lng	0.01171875	-0.45361328125	0.88134765625	2.50381679389313	0.0916030534351145	0.8091603053435115	167.4	117.0	-69.0
2017-08-17 13:57:24.059629	lat	lng	0.01123046875	-0.45166015625	0.879638671875	2.427480916030534	0.10687022900763359	0.7633587786259542	167.4	117.0	-69.0
2017-08-17 13:57:24.083616	lat	lng	0.011474609375	-0.44970703125	0.87451171875	2.33587786259542	0.061068702290076333	0.6717557251908397	167.4	117.0	-69.0
2017-08-17 13:57:24.100499	lat	lng	0.009765625	-0.453369140625	0.888427734375	2.198473282442748	-0.07633587786259542	0.8854961832061069	167.4	117.0	-69.0
2017-08-17 13:57:24.117637	lat	lng	0.00927734375	-0.45068359375	0.8828125	2.366412213740458	0.0	0.8396946564885496	167.4	117.0	-69.0
2017-08-17 13:57:24.134526	lat	lng	0.01123046875	-0.451904296875	0.879150390625	2.549618320610687	-0.10687022900763359	0.8091603053435115	167.4	117.0	-69.0
2017-08-17 13:57:24.152165	lat	lng	0.013427734375	-0.4541015625	0.88427734375	2.366412213740458	0.07633587786259542	1.0381679389312977	167.4	117.0	-69.0
2017-08-17 13:57:24.169370	lat	lng	0.010009765625	-0.452392578125	0.882568359375	2.2748091603053435	0.12213740458015267	0.7022900763358778	167.4	117.0	-69.0
2017-08-17 13:57:24.186495	lat	lng	0.008544921875	-0.45068359375	0.88623046875	2.33587786259542	0.015267175572519083	0.8244274809160306	167.4	117.0	-69.0
2017-08-17 13:57:24.203640	lat	lng	0.008544921875	-0.452880859375	0.8837890625	2.381679389312977	-0.015267175572519083	0.8549618320610687	167.4	117.0	-69.0
2017-08-17 13:57:24.220538	lat	lng	0.008056640625	-0.449951171875	0.88720703125	2.549618320610687	-0.15267175572519084	1.0076335877862594	167.4	117.0	-69.0
2017-08-17 13:57:24.237712	lat	lng	0.00927734375	-0.451904296875	0.884765625	2.4732824427480917	-0.015267175572519083	0.8854961832061069	167.4	117.0	-69.0
2017-08-17 13:57:24.254919	lat	lng	0.01123046875	-0.4521484375	0.8876953125	2.4122137404580153	0.04580152671755725	0.8549618320610687	167.4	117.0	-69.0
2017-08-17 13:57:24.275300	lat	lng	0.01025390625	-0.453369140625	0.880859375	2.427480916030534	0.015267175572519083	0.7633587786259542	167.4	117.0	-69.0
2017-08-17 13:57:24.292864	lat	lng	0.017578125	-0.453369140625	0.884765625	2.2748091603053435	-3.9083969465648853	0.8396946564885496	167.4	117.0	-69.0
2017-08-17 13:57:24.310255	lat	lng	0.00927734375	-0.455810546875	0.8857421875	2.7022900763358777	-0.16793893129770993	0.7786259541984732	167.4	117.0	-69.0
2017-08-17 13:57:24.327698	lat	lng	0.012939453125	-0.44970703125	0.8837890625	2.381679389312977	0.13740458015267176	0.7480916030534351	167.4	117.0	-69.0
2017-08-17 13:57:24.345165	lat	lng	0.009765625	-0.45166015625	0.88818359375	2.4732824427480917	-0.16793893129770993	0.8702290076335878	167.4	117.0	-69.0
2017-08-17 13:57:24.362562	lat	lng	0.009521484375	-0.45361328125	0.877685546875	2.366412213740458	-0.030534351145038167	0.8244274809160306	167.4	117.0	-69.0
2017-08-17 13:57:24.380254	lat	lng	0.012939453125	-0.4521484375	0.88916015625	2.427480916030534	0.04580152671755725	0.7480916030534351	167.4	117.0	-69.0
2017-08-17 13:57:24.398852	lat	lng	0.010986328125	-0.4501953125	0.884521484375	2.381679389312977	0.030534351145038167	0.7938931297709924	167.4	117.0	-69.0
2017-08-17 13:57:24.416766	lat	lng	0.011962890625	-0.451416015625	0.8837890625	2.7480916030534353	0.015267175572519083	0.9312977099236641	167.4	117.0	-69.0
2017-08-17 13:57:24.435212	lat	lng	0.01123046875	-0.451171875	0.88037109375	2.33587786259542	0.0916030534351145	0.8702290076335878	167.4	117.0	-69.0
2017-08-17 13:57:24.452746	lat	lng	0.0068359375	-0.45654296875	0.883544921875	2.2748091603053435	-0.33587786259541985	0.9770992366412213	167.4	117.0	-69.0
2017-08-17 13:57:24.470225	lat	lng	0.012939453125	-0.45166015625	0.887939453125	2.351145038167939	-0.04580152671755725	0.7175572519083969	167.4	117.0	-69.0
2017-08-17 13:57:24.487836	lat	lng	0.009033203125	-0.453125	0.88671875	2.381679389312977	0.015267175572519083	0.7786259541984732	167.4	117.0	-69.0
2017-08-17 13:57:24.505249	lat	lng	0.01416015625	-0.450927734375	0.8818359375	2.5343511450381677	0.10687022900763359	0.8091603053435115	167.4	117.0	-69.0
2017-08-17 13:57:24.521636	lat	lng	0.013916015625	-0.451171875	0.883056640625	2.549618320610687	-0.04580152671755725	0.8854961832061069	167.4	117.0	-69.0
2017-08-17 13:57:24.537890	lat	lng	0.01025390625	-0.45263671875	0.888916015625	2.213740458015267	0.07633587786259542	0.732824427480916	167.4	117.0	-69.0
2017-08-17 13:57:24.554235	lat	lng	0.0126953125	-0.45263671875	0.882568359375	2.4885496183206106	-0.183206106870229	0.8396946564885496	167.4	117.0	-69.0
2017-08-17 13:57:24.573623	lat	lng	0.010498046875	-0.45654296875	0.885009765625	2.33587786259542	-0.13740458015267176	0.8396946564885496	167.4	117.0	-69.0
2017-08-17 13:57:24.594123	lat	lng	0.013427734375	-0.455078125	0.883056640625	2.4732824427480917	0.07633587786259542	0.9923664122137404	167.4	117.0	-69.0
2017-08-17 13:57:24.614444	lat	lng	0.01025390625	-0.451904296875	0.881103515625	2.6564885496183206	0.061068702290076333	0.8091603053435115	167.4	117.0	-69.0
2017-08-17 13:57:24.635020	lat	lng	0.012451171875	-0.455322265625	0.879638671875	2.427480916030534	0.2900763358778626	0.732824427480916	167.4	117.0	-69.0
2017-08-17 13:57:24.658661	lat	lng	0.01123046875	-0.45654296875	0.87744140625	2.50381679389313	3.877862595419847	0.7938931297709924	167.4	117.0	-69.0
2017-08-17 13:57:24.679363	lat	lng	0.008544921875	-0.454833984375	0.882080078125	2.3206106870229006	0.10687022900763359	0.6564885496183206	167.4	117.0	-69.0
2017-08-17 13:57:24.700635	lat	lng	0.007568359375	-0.455078125	0.884765625	2.2595419847328246	-0.015267175572519083	0.8244274809160306	167.4	117.0	-69.0
2017-08-17 13:57:24.723790	lat	lng	0.00830078125	-0.454833984375	0.879150390625	2.2595419847328246	0.15267175572519084	1.0687022900763359	167.4	117.0	-69.0
2017-08-17 13:57:24.746417	lat	lng	0.013916015625	-0.45458984375	0.8779296875	2.6106870229007635	-0.183206106870229	0.7480916030534351	167.4	117.0	-69.0
2017-08-17 13:57:24.770319	lat	lng	0.006591796875	-0.453857421875	0.88134765625	2.5801526717557253	-0.3053435114503817	0.8244274809160306	167.4	117.0	-69.0
2017-08-17 13:57:24.792938	lat	lng	0.011474609375	-0.45263671875	0.8828125	2.3206106870229006	0.3053435114503817	0.7022900763358778	167.4	117.0	-69.0
2017-08-17 13:57:24.816585	lat	lng	0.009765625	-0.4560546875	0.89111328125	2.2442748091603053	-3.877862595419847	0.8854961832061069	167.4	117.0	-69.0
2017-08-17 13:57:24.838682	lat	lng	0.010498046875	-0.454833984375	0.87548828125	2.3206106870229006	-0.15267175572519084	0.7938931297709924	167.4	117.0	-69.0
2017-08-17 13:57:24.859876	lat	lng	0.007080078125	-0.449951171875	0.8818359375	2.4427480916030535	0.030534351145038167	0.8091603053435115	167.4	117.0	-69.0
2017-08-17 13:57:24.881245	lat	lng	0.0107421875	-0.4541015625	0.879150390625	2.4580152671755724	0.015267175572519083	0.9618320610687023	167.4	117.0	-69.0
2017-08-17 13:57:24.902228	lat	lng	0.013427734375	-0.451416015625	0.884033203125	2.4732824427480917	-0.04580152671755725	0.732824427480916	167.4	117.0	-69.0
2017-08-17 13:57:24.922531	lat	lng	0.01123046875	-0.455322265625	0.88330078125	2.4427480916030535	0.2595419847328244	0.9465648854961832	167.4	117.0	-69.0
2017-08-17 13:57:24.942931	lat	lng	0.00732421875	-0.453369140625	0.8828125	2.2900763358778624	-0.12213740458015267	1.0534351145038168	167.4	117.0	-69.0
2017-08-17 13:57:24.966454	lat	lng	0.013916015625	-0.4521484375	0.879638671875	2.4122137404580153	0.061068702290076333	0.8549618320610687	167.4	117.0	-69.0
2017-08-17 13:57:24.988585	lat	lng	0.009765625	-0.449951171875	0.8828125	2.381679389312977	0.061068702290076333	0.732824427480916	167.4	117.0	-69.0
2017-08-17 13:57:25.013034	lat	lng	0.011962890625	-0.4501953125	0.88330078125	2.198473282442748	-3.9083969465648853	0.732824427480916	167.4	117.0	-69.0
2017-08-17 13:57:25.035950	lat	lng	0.00634765625	-0.452392578125	0.887451171875	2.6259541984732824	0.12213740458015267	0.7786259541984732	167.4	117.0	-69.0
2017-08-17 13:57:25.059190	lat	lng	0.00927734375	-0.452392578125	0.88671875	2.4427480916030535	0.04580152671755725	0.8244274809160306	167.4	117.0	-69.0
2017-08-17 13:57:25.083293	lat	lng	0.010498046875	-0.455322265625	0.879638671875	2.3206106870229006	0.0	0.9618320610687023	167.4	117.0	-69.0
2017-08-17 13:57:25.105677	lat	lng	0.012451171875	-0.453125	0.876708984375	2.366412213740458	0.366412213740458	1.0687022900763359	167.4	117.0	-69.0
2017-08-17 13:57:25.130278	lat	lng	0.012939453125	-0.451416015625	0.882080078125	2.4122137404580153	-0.21374045801526717	0.8702290076335878	167.4	117.0	-69.0
2017-08-17 13:57:25.152346	lat	lng	0.010986328125	-0.453125	0.87646484375	2.50381679389313	-0.030534351145038167	0.7633587786259542	167.4	117.0	-69.0
2017-08-17 13:57:25.175667	lat	lng	0.00634765625	-0.45166015625	0.88037109375	2.4732824427480917	-0.1984732824427481	0.5648854961832062	167.4	117.0	-69.0
2017-08-17 13:57:25.198759	lat	lng	0.00732421875	-0.455078125	0.88427734375	2.519083969465649	-0.030534351145038167	0.7175572519083969	167.4	117.0	-69.0
2017-08-17 13:57:25.221667	lat	lng	0.013427734375	-0.450927734375	0.88037109375	2.4122137404580153	-0.13740458015267176	0.8549618320610687	167.4	117.0	-69.0
2017-08-17 13:57:25.245354	lat	lng	0.009521484375	-0.451904296875	0.880126953125	2.381679389312977	-0.12213740458015267	0.8091603053435115	167.4	117.0	-69.0
2017-08-17 13:57:25.268021	lat	lng	0.0107421875	-0.454345703125	0.881591796875	2.50381679389313	0.015267175572519083	0.6870229007633588	167.4	117.0	-69.0
2017-08-17 13:57:25.296787	lat	lng	0.01171875	-0.451904296875	0.88232421875	2.6259541984732824	-0.1984732824427481	0.6717557251908397	167.4	117.0	-69.0
2017-08-17 13:57:25.317075	lat	lng	0.01025390625	-0.45361328125	0.875244140625	2.6259541984732824	-0.1984732824427481	1.0534351145038168	167.4	117.0	-69.0
2017-08-17 13:57:25.337354	lat	lng	0.006103515625	-0.453125	0.880615234375	2.7786259541984735	0.015267175572519083	0.7633587786259542	167.4	117.0	-69.0
2017-08-17 13:57:25.357692	lat	lng	0.011474609375	-0.45458984375	0.878662109375	2.381679389312977	-0.015267175572519083	0.732824427480916	167.4	117.0	-69.0
2017-08-17 13:57:25.379373	lat	lng	0.01318359375	-0.45166015625	0.8828125	2.3969465648854964	-3.8931297709923665	0.7938931297709924	167.4	117.0	-69.0
2017-08-17 13:57:25.401470	lat	lng	0.01123046875	-0.45068359375	0.887451171875	2.5343511450381677	0.015267175572519083	0.8091603053435115	167.4	117.0	-69.0
2017-08-17 13:57:25.422340	lat	lng	0.008056640625	-0.44970703125	0.88037109375	2.366412213740458	-0.13740458015267176	0.8549618320610687	167.4	117.0	-69.0
2017-08-17 13:57:25.446762	lat	lng	0.008056640625	-0.455322265625	0.878173828125	2.4122137404580153	0.07633587786259542	0.7480916030534351	167.4	117.0	-69.0
2017-08-17 13:57:25.469499	lat	lng	0.011474609375	-0.45068359375	0.876220703125	2.6106870229007635	-0.061068702290076333	0.5343511450381679	167.4	117.0	-69.0
2017-08-17 13:57:25.500992	lat	lng	0.007568359375	-0.451416015625	0.882080078125	2.4580152671755724	-0.13740458015267176	0.7786259541984732	167.4	117.0	-69.0
2017-08-17 13:57:25.521415	lat	lng	0.009033203125	-0.457763671875	0.8740234375	2.6259541984732824	0.0	0.7480916030534351	167.4	117.0	-69.0
2017-08-17 13:57:25.543130	lat	lng	0.009765625	-0.453857421875	0.8798828125	2.366412213740458	0.12213740458015267	0.6106870229007634	167.4	117.0	-69.0
2017-08-17 13:57:25.564168	lat	lng	0.007568359375	-0.45068359375	0.883544921875	2.2595419847328246	-0.0916030534351145	0.916030534351145	167.4	117.0	-69.0
2017-08-17 13:57:25.584743	lat	lng	0.008544921875	-0.453125	0.87646484375	2.549618320610687	-0.015267175572519083	0.9465648854961832	167.4	117.0	-69.0
2017-08-17 13:57:25.606267	lat	lng	0.01123046875	-0.4521484375	0.87744140625	2.564885496183206	0.13740458015267176	0.6106870229007634	167.4	117.0	-69.0
2017-08-17 13:57:25.627468	lat	lng	0.01025390625	-0.451904296875	0.8828125	2.6259541984732824	-0.0916030534351145	0.7175572519083969	167.4	117.0	-69.0
2017-08-17 13:57:25.648259	lat	lng	0.01416015625	-0.451171875	0.88232421875	2.198473282442748	0.12213740458015267	0.7022900763358778	167.4	117.0	-69.0
2017-08-17 13:57:25.669842	lat	lng	0.014892578125	-0.452880859375	0.882568359375	2.3053435114503817	-0.061068702290076333	0.9312977099236641	167.4	117.0	-69.0
2017-08-17 13:57:25.690482	lat	lng	0.012451171875	-0.451171875	0.8720703125	2.595419847328244	-0.030534351145038167	0.7786259541984732	167.4	117.0	-69.0
2017-08-17 13:57:25.713310	lat	lng	0.01220703125	-0.45263671875	0.880615234375	2.4580152671755724	-0.16793893129770993	0.732824427480916	167.4	117.0	-69.0
2017-08-17 13:57:25.735426	lat	lng	0.01171875	-0.449951171875	0.882568359375	2.4732824427480917	-0.015267175572519083	0.8091603053435115	167.4	117.0	-69.0
2017-08-17 13:57:25.757946	lat	lng	0.013427734375	-0.452880859375	0.87939453125	2.2595419847328246	0.0	0.916030534351145	167.4	117.0	-69.0
2017-08-17 13:57:25.782326	lat	lng	0.01171875	-0.453369140625	0.87451171875	2.732824427480916	-0.16793893129770993	0.8091603053435115	167.4	117.0	-69.0
2017-08-17 13:57:25.804155	lat	lng	0.0146484375	-0.4541015625	0.88134765625	2.4580152671755724	-0.12213740458015267	1.0076335877862594	167.4	117.0	-69.0
2017-08-17 13:57:25.824790	lat	lng	0.0087890625	-0.453369140625	0.8857421875	2.4580152671755724	0.061068702290076333	0.8854961832061069	167.4	117.0	-69.0
2017-08-17 13:57:25.850669	lat	lng	0.010498046875	-0.453369140625	0.8779296875	2.427480916030534	0.0916030534351145	0.6412213740458015	167.4	117.0	-69.0
2017-08-17 13:57:25.874802	lat	lng	0.009521484375	-0.452880859375	0.881103515625	2.427480916030534	0.15267175572519084	0.9312977099236641	167.4	117.0	-69.0
2017-08-17 13:57:25.898600	lat	lng	0.01220703125	-0.45361328125	0.880615234375	2.366412213740458	0.07633587786259542	0.8396946564885496	167.4	117.0	-69.0
2017-08-17 13:57:25.920804	lat	lng	0.012939453125	-0.454345703125	0.88427734375	2.6259541984732824	-0.12213740458015267	0.8702290076335878	167.4	117.0	-69.0
2017-08-17 13:57:25.948982	lat	lng	0.009521484375	-0.4521484375	0.880859375	2.3053435114503817	0.21374045801526717	0.916030534351145	167.4	117.0	-69.0
2017-08-17 13:57:25.971508	lat	lng	0.0126953125	-0.452880859375	0.876953125	2.4732824427480917	0.1984732824427481	0.6717557251908397	167.4	117.0	-69.0
2017-08-17 13:57:25.994323	lat	lng	0.011474609375	-0.455078125	0.87841796875	2.4427480916030535	-0.15267175572519084	0.916030534351145	167.4	117.0	-69.0
2017-08-17 13:57:26.018949	lat	lng	0.0126953125	-0.454833984375	0.878662109375	2.5343511450381677	0.061068702290076333	0.9770992366412213	167.4	117.0	-69.0
2017-08-17 13:57:26.041198	lat	lng	0.01025390625	-0.451904296875	0.88232421875	2.4732824427480917	-0.183206106870229	0.6870229007633588	167.4	117.0	-69.0
2017-08-17 13:57:26.064664	lat	lng	0.01025390625	-0.450927734375	0.87890625	2.213740458015267	0.015267175572519083	0.7480916030534351	167.4	117.0	-69.0
2017-08-17 13:57:26.097827	lat	lng	0.01171875	-0.45361328125	0.873779296875	2.351145038167939	-0.16793893129770993	0.7938931297709924	167.4	117.0	-69.0
2017-08-17 13:57:26.120602	lat	lng	0.013671875	-0.4541015625	0.882080078125	2.351145038167939	-0.061068702290076333	0.9618320610687023	167.4	117.0	-69.0
2017-08-17 13:57:26.143744	lat	lng	0.010986328125	-0.4541015625	0.8837890625	2.4885496183206106	0.13740458015267176	0.8549618320610687	167.4	117.0	-69.0
2017-08-17 13:57:26.163988	lat	lng	0.009033203125	-0.453857421875	0.883056640625	2.427480916030534	-0.12213740458015267	0.916030534351145	167.4	117.0	-69.0
2017-08-17 13:57:26.184888	lat	lng	0.010498046875	-0.45654296875	0.882568359375	2.4427480916030535	-3.9083969465648853	0.7480916030534351	167.4	117.0	-69.0
2017-08-17 13:57:26.205240	lat	lng	0.011474609375	-0.452880859375	0.88037109375	2.4885496183206106	-0.015267175572519083	0.8702290076335878	167.4	117.0	-69.0
2017-08-17 13:57:26.226261	lat	lng	0.01123046875	-0.453369140625	0.882080078125	2.4732824427480917	3.83206106870229	0.9618320610687023	167.4	117.0	-69.0
2017-08-17 13:57:26.248865	lat	lng	0.01318359375	-0.4521484375	0.880859375	2.564885496183206	3.8625954198473282	0.6412213740458015	167.4	117.0	-69.0
2017-08-17 13:57:26.277026	lat	lng	0.007080078125	-0.4482421875	0.8779296875	2.6564885496183206	-0.061068702290076333	0.6564885496183206	167.4	117.0	-69.0
2017-08-17 13:57:26.299759	lat	lng	0.009033203125	-0.451904296875	0.8876953125	2.564885496183206	0.030534351145038167	0.8549618320610687	167.4	117.0	-69.0
2017-08-17 13:57:26.327842	lat	lng	0.013427734375	-0.45068359375	0.8798828125	2.366412213740458	0.1984732824427481	0.6717557251908397	167.4	117.0	-69.0
2017-08-17 13:57:26.357982	lat	lng	0.01171875	-0.453857421875	0.877685546875	2.4885496183206106	-0.12213740458015267	0.7786259541984732	167.4	117.0	-69.0
2017-08-17 13:57:26.379438	lat	lng	0.009521484375	-0.455810546875	0.884521484375	2.2900763358778624	-0.12213740458015267	0.5038167938931297	167.4	117.0	-69.0
2017-08-17 13:57:26.401101	lat	lng	0.01025390625	-0.452392578125	0.879150390625	2.2595419847328246	0.16793893129770993	0.732824427480916	167.4	117.0	-69.0
2017-08-17 13:57:26.422253	lat	lng	0.01123046875	-0.44873046875	0.880859375	2.4122137404580153	0.10687022900763359	0.8091603053435115	167.4	117.0	-69.0
2017-08-17 13:57:26.453785	lat	lng	0.01318359375	-0.452880859375	0.88525390625	2.595419847328244	0.030534351145038167	0.7022900763358778	167.4	117.0	-69.0
2017-08-17 13:57:26.476550	lat	lng	0.010986328125	-0.45556640625	0.88037109375	2.6106870229007635	-0.030534351145038167	0.8396946564885496	167.4	117.0	-69.0
2017-08-17 13:57:26.498822	lat	lng	0.012939453125	-0.457763671875	0.880126953125	2.366412213740458	0.015267175572519083	0.7938931297709924	167.4	117.0	-69.0
2017-08-17 13:57:26.521112	lat	lng	0.01025390625	-0.45361328125	0.8837890625	2.50381679389313	0.061068702290076333	0.8854961832061069	167.4	117.0	-69.0
2017-08-17 13:57:26.541414	lat	lng	0.009765625	-0.452392578125	0.8828125	2.4732824427480917	-0.183206106870229	0.8702290076335878	167.4	117.0	-69.0
2017-08-17 13:57:26.561561	lat	lng	0.008056640625	-0.45458984375	0.88232421875	2.4427480916030535	-0.1984732824427481	0.8396946564885496	167.4	117.0	-69.0
2017-08-17 13:57:26.581719	lat	lng	0.013916015625	-0.447021484375	0.883056640625	2.33587786259542	0.10687022900763359	0.7938931297709924	167.4	117.0	-69.0
2017-08-17 13:57:26.601798	lat	lng	0.0107421875	-0.45263671875	0.879638671875	2.366412213740458	3.8931297709923665	0.8091603053435115	167.4	117.0	-69.0
2017-08-17 13:57:26.627944	lat	lng	0.012939453125	-0.453125	0.880859375	2.6106870229007635	-0.15267175572519084	1.1755725190839694	167.4	117.0	-69.0
2017-08-17 13:57:26.650514	lat	lng	0.010009765625	-0.450927734375	0.884033203125	2.4427480916030535	0.10687022900763359	0.916030534351145	167.4	117.0	-69.0
2017-08-17 13:57:26.674444	lat	lng	0.00830078125	-0.449951171875	0.8798828125	2.4885496183206106	3.8625954198473282	0.7480916030534351	167.4	117.0	-69.0
2017-08-17 13:57:26.697135	lat	lng	0.008544921875	-0.454833984375	0.879638671875	2.33587786259542	0.0916030534351145	1.0381679389312977	167.4	117.0	-69.0
2017-08-17 13:57:26.719192	lat	lng	0.010009765625	-0.4521484375	0.885009765625	2.687022900763359	0.2900763358778626	0.6412213740458015	167.4	117.0	-69.0
2017-08-17 13:57:26.739844	lat	lng	0.01318359375	-0.450927734375	0.87841796875	2.2595419847328246	-0.015267175572519083	0.7786259541984732	167.4	117.0	-69.0
2017-08-17 13:57:26.767544	lat	lng	0.0126953125	-0.45458984375	0.882568359375	2.6717557251908395	0.030534351145038167	0.8702290076335878	167.4	117.0	-69.0
2017-08-17 13:57:26.788991	lat	lng	0.01318359375	-0.45068359375	0.88671875	2.5343511450381677	3.8931297709923665	0.7022900763358778	167.4	117.0	-69.0
2017-08-17 13:57:26.811162	lat	lng	0.010986328125	-0.448974609375	0.880859375	2.4885496183206106	-0.13740458015267176	0.8244274809160306	167.4	117.0	-69.0
2017-08-17 13:57:26.832533	lat	lng	0.00830078125	-0.449951171875	0.88330078125	2.4580152671755724	0.0	0.8702290076335878	167.4	117.0	-69.0
2017-08-17 13:57:26.858822	lat	lng	0.011474609375	-0.449951171875	0.882080078125	2.4885496183206106	0.07633587786259542	0.8549618320610687	167.4	117.0	-69.0
2017-08-17 13:57:26.882366	lat	lng	0.009765625	-0.452880859375	0.88232421875	2.4580152671755724	0.04580152671755725	0.8244274809160306	167.4	117.0	-69.0
2017-08-17 13:57:26.903449	lat	lng	0.01171875	-0.452880859375	0.8837890625	2.3053435114503817	0.366412213740458	0.8702290076335878	167.4	117.0	-69.0
2017-08-17 13:57:26.924893	lat	lng	0.006591796875	-0.45166015625	0.874755859375	2.4732824427480917	-0.015267175572519083	0.8396946564885496	167.4	117.0	-69.0
2017-08-17 13:57:26.946581	lat	lng	0.0078125	-0.4580078125	0.884033203125	2.5343511450381677	-0.030534351145038167	0.916030534351145	167.4	117.0	-69.0
2017-08-17 13:57:26.967271	lat	lng	0.0078125	-0.45703125	0.88037109375	2.3969465648854964	0.07633587786259542	0.8549618320610687	167.4	117.0	-69.0
2017-08-17 13:57:26.996007	lat	lng	0.010986328125	-0.454833984375	0.88525390625	2.4732824427480917	-0.13740458015267176	0.9465648854961832	167.4	117.0	-69.0
2017-08-17 13:57:27.017269	lat	lng	0.00732421875	-0.452880859375	0.882568359375	2.6412213740458017	0.030534351145038167	0.8244274809160306	167.4	117.0	-69.0
2017-08-17 13:57:27.037705	lat	lng	0.009765625	-0.45068359375	0.884521484375	2.366412213740458	-0.16793893129770993	0.916030534351145	167.4	117.0	-69.0
2017-08-17 13:57:27.060952	lat	lng	0.009765625	-0.452392578125	0.88134765625	2.4122137404580153	0.183206106870229	0.9465648854961832	167.4	117.0	-69.0
2017-08-17 13:57:27.082151	lat	lng	0.009521484375	-0.45361328125	0.880615234375	2.2900763358778624	0.0916030534351145	0.6412213740458015	167.4	117.0	-69.0
2017-08-17 13:57:27.102617	lat	lng	0.00927734375	-0.45556640625	0.884033203125	2.595419847328244	0.015267175572519083	0.9465648854961832	167.4	117.0	-69.0
2017-08-17 13:57:27.124722	lat	lng	0.01171875	-0.450439453125	0.880126953125	2.564885496183206	0.2595419847328244	0.732824427480916	167.4	117.0	-69.0
2017-08-17 13:57:27.145864	lat	lng	0.008056640625	-0.453857421875	0.8828125	2.687022900763359	3.8931297709923665	1.0076335877862594	167.4	117.0	-69.0
2017-08-17 13:57:27.168334	lat	lng	0.01171875	-0.4541015625	0.88232421875	2.4580152671755724	-0.16793893129770993	0.9465648854961832	167.4	117.0	-69.0
2017-08-17 13:57:27.189437	lat	lng	0.010986328125	-0.445556640625	0.887451171875	2.381679389312977	-0.10687022900763359	0.732824427480916	167.4	117.0	-69.0
2017-08-17 13:57:27.211083	lat	lng	0.00830078125	-0.451904296875	0.882568359375	2.6259541984732824	-0.15267175572519084	0.7938931297709924	167.4	117.0	-69.0
2017-08-17 13:57:27.234356	lat	lng	0.007080078125	-0.451416015625	0.875244140625	2.6412213740458017	-0.183206106870229	0.7633587786259542	167.4	117.0	-69.0
2017-08-17 13:57:27.256083	lat	lng	0.011474609375	-0.450927734375	0.87841796875	2.1526717557251906	0.04580152671755725	0.9312977099236641	167.4	117.0	-69.0
2017-08-17 13:57:27.279477	lat	lng	0.009765625	-0.45263671875	0.8828125	2.4122137404580153	0.061068702290076333	0.8396946564885496	167.4	117.0	-69.0
2017-08-17 13:57:27.301259	lat	lng	0.010498046875	-0.453369140625	0.88671875	2.3206106870229006	0.13740458015267176	0.7175572519083969	167.4	117.0	-69.0
2017-08-17 13:57:27.323716	lat	lng	0.010009765625	-0.452880859375	0.87939453125	2.427480916030534	3.8931297709923665	0.8091603053435115	167.4	117.0	-69.0
2017-08-17 13:57:27.347395	lat	lng	0.00927734375	-0.45361328125	0.880126953125	2.4732824427480917	0.04580152671755725	0.7480916030534351	167.4	117.0	-69.0
2017-08-17 13:57:27.369680	lat	lng	0.013427734375	-0.45458984375	0.872314453125	2.427480916030534	-0.07633587786259542	0.7786259541984732	167.4	117.0	-69.0
2017-08-17 13:57:27.396079	lat	lng	0.00830078125	-0.44921875	0.875	2.2900763358778624	0.04580152671755725	0.8396946564885496	167.4	117.0	-69.0
2017-08-17 13:57:27.418937	lat	lng	0.01123046875	-0.453369140625	0.8837890625	2.7480916030534353	0.030534351145038167	0.8091603053435115	167.4	117.0	-69.0
2017-08-17 13:57:27.441816	lat	lng	0.00732421875	-0.453125	0.877197265625	2.381679389312977	0.10687022900763359	1.0229007633587786	167.4	117.0	-69.0
2017-08-17 13:57:27.462374	lat	lng	0.011474609375	-0.45263671875	0.884521484375	2.4732824427480917	-0.0916030534351145	0.6717557251908397	167.4	117.0	-69.0
2017-08-17 13:57:27.482900	lat	lng	0.01123046875	-0.453369140625	0.883056640625	2.6106870229007635	-0.07633587786259542	0.8854961832061069	167.4	117.0	-69.0
2017-08-17 13:57:27.503823	lat	lng	0.011474609375	-0.45703125	0.881591796875	2.3969465648854964	0.015267175572519083	0.7938931297709924	167.4	117.0	-69.0
2017-08-17 13:57:27.524377	lat	lng	0.0126953125	-0.455810546875	0.874267578125	2.2290076335877864	-0.04580152671755725	0.9007633587786259	167.4	117.0	-69.0
2017-08-17 13:57:27.556749	lat	lng	0.008544921875	-0.4541015625	0.879638671875	2.2290076335877864	-0.13740458015267176	0.7633587786259542	167.4	117.0	-69.0
2017-08-17 13:57:27.577992	lat	lng	0.01025390625	-0.4521484375	0.882080078125	2.2748091603053435	-0.10687022900763359	0.732824427480916	167.4	117.0	-69.0
2017-08-17 13:57:27.600928	lat	lng	0.01123046875	-0.456298828125	0.8818359375	2.198473282442748	-0.24427480916030533	0.7022900763358778	167.4	117.0	-69.0
2017-08-17 13:57:27.627041	lat	lng	0.012451171875	-0.454345703125	0.883056640625	2.2748091603053435	-0.07633587786259542	0.7480916030534351	167.4	117.0	-69.0
2017-08-17 13:57:27.648534	lat	lng	0.009033203125	-0.4521484375	0.879638671875	2.3969465648854964	0.061068702290076333	0.7175572519083969	167.4	117.0	-69.0
2017-08-17 13:57:27.671361	lat	lng	0.01123046875	-0.455322265625	0.87451171875	2.4885496183206106	0.030534351145038167	0.9770992366412213	167.4	117.0	-69.0
2017-08-17 13:57:27.693376	lat	lng	0.005859375	-0.453369140625	0.881103515625	2.6259541984732824	3.877862595419847	1.0534351145038168	167.4	117.0	-69.0
2017-08-17 13:57:27.714938	lat	lng	0.013427734375	-0.45458984375	0.875244140625	2.2290076335877864	-0.10687022900763359	0.5343511450381679	167.4	117.0	-69.0
2017-08-17 13:57:27.738486	lat	lng	0.006591796875	-0.453857421875	0.8798828125	2.4732824427480917	3.8931297709923665	0.916030534351145	167.4	117.0	-69.0
2017-08-17 13:57:27.767696	lat	lng	0.010498046875	-0.451904296875	0.891357421875	2.732824427480916	-0.061068702290076333	0.8244274809160306	167.4	117.0	-69.0
2017-08-17 13:57:27.788821	lat	lng	0.01171875	-0.45361328125	0.874755859375	2.519083969465649	0.12213740458015267	0.7786259541984732	167.4	117.0	-69.0
2017-08-17 13:57:27.818870	lat	lng	0.009521484375	-0.45166015625	0.876220703125	2.687022900763359	-0.15267175572519084	0.9007633587786259	167.4	117.0	-69.0
2017-08-17 13:57:27.839414	lat	lng	0.0107421875	-0.453369140625	0.88525390625	2.3969465648854964	0.030534351145038167	0.8244274809160306	167.4	117.0	-69.0
2017-08-17 13:57:27.859774	lat	lng	0.010498046875	-0.453857421875	0.87890625	2.4122137404580153	-0.0916030534351145	0.9618320610687023	167.4	117.0	-69.0
2017-08-17 13:57:27.880897	lat	lng	0.00634765625	-0.451416015625	0.883056640625	2.351145038167939	-0.07633587786259542	0.7633587786259542	167.4	117.0	-69.0
2017-08-17 13:57:27.901391	lat	lng	0.0126953125	-0.4541015625	0.887451171875	2.381679389312977	-0.24427480916030533	0.7938931297709924	167.4	117.0	-69.0
2017-08-17 13:57:27.929994	lat	lng	0.01220703125	-0.45361328125	0.877197265625	2.519083969465649	-0.2748091603053435	0.7022900763358778	167.4	117.0	-69.0
2017-08-17 13:57:27.951034	lat	lng	0.012451171875	-0.4501953125	0.880126953125	2.4732824427480917	-0.015267175572519083	0.7786259541984732	167.4	117.0	-69.0
2017-08-17 13:57:27.973119	lat	lng	0.00927734375	-0.455322265625	0.88037109375	2.3206106870229006	-0.21374045801526717	0.9007633587786259	167.4	117.0	-69.0
2017-08-17 13:57:27.999355	lat	lng	0.01025390625	-0.4560546875	0.888427734375	2.6717557251908395	-0.04580152671755725	0.7175572519083969	167.4	117.0	-69.0
2017-08-17 13:57:28.020849	lat	lng	0.010498046875	-0.44970703125	0.87890625	2.50381679389313	0.33587786259541985	0.732824427480916	167.4	117.0	-69.0
2017-08-17 13:57:28.047585	lat	lng	0.009521484375	-0.450439453125	0.878662109375	2.4732824427480917	-0.061068702290076333	0.6717557251908397	167.4	117.0	-69.0
2017-08-17 13:57:28.069480	lat	lng	0.009765625	-0.45068359375	0.87744140625	2.564885496183206	0.030534351145038167	0.732824427480916	167.4	117.0	-69.0
2017-08-17 13:57:28.092094	lat	lng	0.01123046875	-0.457275390625	0.8828125	2.351145038167939	0.1984732824427481	0.6412213740458015	167.4	117.0	-69.0
2017-08-17 13:57:28.114099	lat	lng	0.010498046875	-0.452880859375	0.883056640625	2.3969465648854964	-0.22900763358778625	0.7786259541984732	167.4	117.0	-69.0
2017-08-17 13:57:28.138065	lat	lng	0.013427734375	-0.451904296875	0.88525390625	2.366412213740458	0.061068702290076333	0.6717557251908397	167.4	117.0	-69.0
2017-08-17 13:57:28.161320	lat	lng	0.01025390625	-0.451171875	0.879150390625	2.4732824427480917	-0.15267175572519084	0.7175572519083969	167.4	117.0	-69.0
2017-08-17 13:57:28.184509	lat	lng	0.010986328125	-0.454833984375	0.88232421875	2.4732824427480917	0.0	0.8854961832061069	167.4	117.0	-69.0
2017-08-17 13:57:28.205569	lat	lng	0.01123046875	-0.450927734375	0.875732421875	2.2290076335877864	0.10687022900763359	0.916030534351145	167.4	117.0	-69.0
2017-08-17 13:57:28.222636	lat	lng	0.007568359375	-0.45703125	0.888427734375	2.6106870229007635	0.15267175572519084	0.7175572519083969	167.4	117.0	-69.0
2017-08-17 13:57:28.239300	lat	lng	0.011474609375	-0.45361328125	0.882080078125	2.50381679389313	-0.15267175572519084	0.9923664122137404	167.4	117.0	-69.0
2017-08-17 13:57:28.255950	lat	lng	0.010986328125	-0.451904296875	0.88623046875	2.4427480916030535	-0.07633587786259542	0.5954198473282443	167.4	117.0	-69.0
2017-08-17 13:57:28.272652	lat	lng	0.00830078125	-0.453857421875	0.87646484375	2.595419847328244	-0.22900763358778625	0.7633587786259542	167.4	117.0	-69.0
2017-08-17 13:57:28.289236	lat	lng	0.008056640625	-0.452392578125	0.88525390625	2.4427480916030535	-0.24427480916030533	0.9312977099236641	167.4	117.0	-69.0
2017-08-17 13:57:28.306061	lat	lng	0.006103515625	-0.451416015625	0.88037109375	2.427480916030534	0.04580152671755725	0.5954198473282443	167.4	117.0	-69.0
2017-08-17 13:57:28.323175	lat	lng	0.009033203125	-0.45166015625	0.875	2.4580152671755724	3.877862595419847	0.8854961832061069	167.4	117.0	-69.0
2017-08-17 13:57:28.340350	lat	lng	0.010986328125	-0.451416015625	0.885986328125	2.4580152671755724	-0.061068702290076333	0.8091603053435115	167.4	117.0	-69.0
2017-08-17 13:57:28.357271	lat	lng	0.008544921875	-0.4521484375	0.88232421875	2.4580152671755724	0.061068702290076333	0.8702290076335878	167.4	117.0	-69.0
2017-08-17 13:57:28.374767	lat	lng	0.010986328125	-0.456298828125	0.88232421875	2.381679389312977	0.030534351145038167	0.9007633587786259	167.4	117.0	-69.0
2017-08-17 13:57:28.391625	lat	lng	0.008056640625	-0.454345703125	0.875	2.6717557251908395	0.12213740458015267	1.0076335877862594	167.4	117.0	-69.0
2017-08-17 13:57:28.408995	lat	lng	0.01025390625	-0.45166015625	0.885986328125	2.519083969465649	0.07633587786259542	0.6564885496183206	167.4	117.0	-69.0
2017-08-17 13:57:28.425999	lat	lng	0.01025390625	-0.447021484375	0.89306640625	2.351145038167939	-0.07633587786259542	0.8702290076335878	167.4	117.0	-69.0
2017-08-17 13:57:28.443303	lat	lng	0.009521484375	-0.451904296875	0.877685546875	2.4122137404580153	0.07633587786259542	0.6870229007633588	167.4	117.0	-69.0
2017-08-17 13:57:28.460239	lat	lng	0.01025390625	-0.451904296875	0.88916015625	2.381679389312977	-0.015267175572519083	0.8396946564885496	167.4	117.0	-69.0
2017-08-17 13:57:28.477569	lat	lng	0.008544921875	-0.4501953125	0.881591796875	2.4427480916030535	0.015267175572519083	0.7175572519083969	167.4	117.0	-69.0
2017-08-17 13:57:28.494664	lat	lng	0.009765625	-0.451416015625	0.887939453125	2.564885496183206	0.183206106870229	0.7786259541984732	167.4	117.0	-69.0
2017-08-17 13:57:28.512641	lat	lng	0.0107421875	-0.450927734375	0.883544921875	2.427480916030534	-0.061068702290076333	0.7938931297709924	167.4	117.0	-69.0
2017-08-17 13:57:28.529625	lat	lng	0.01318359375	-0.451416015625	0.88427734375	2.366412213740458	-0.0916030534351145	0.8396946564885496	167.4	117.0	-69.0
2017-08-17 13:57:28.547062	lat	lng	0.010986328125	-0.451416015625	0.879150390625	2.381679389312977	0.04580152671755725	1.0229007633587786	167.4	117.0	-69.0
2017-08-17 13:57:28.564224	lat	lng	0.009765625	-0.447998046875	0.888427734375	2.2595419847328246	-0.030534351145038167	0.8091603053435115	167.4	117.0	-69.0
2017-08-17 13:57:28.581294	lat	lng	0.012939453125	-0.455322265625	0.879638671875	2.4732824427480917	-0.22900763358778625	0.9618320610687023	167.4	117.0	-69.0
2017-08-17 13:57:28.597523	lat	lng	0.0146484375	-0.454833984375	0.88330078125	2.4427480916030535	-0.16793893129770993	0.6870229007633588	167.4	117.0	-69.0
2017-08-17 13:57:28.613814	lat	lng	0.010986328125	-0.453857421875	0.884033203125	2.427480916030534	-0.10687022900763359	1.0229007633587786	167.4	117.0	-69.0
2017-08-17 13:57:28.630013	lat	lng	0.014404296875	-0.455810546875	0.884521484375	2.6259541984732824	0.04580152671755725	0.8396946564885496	167.4	117.0	-69.0
2017-08-17 13:57:28.646663	lat	lng	0.011474609375	-0.44873046875	0.88134765625	2.6106870229007635	-0.07633587786259542	0.8091603053435115	167.4	117.0	-69.0
