Time	Position_lat	Position_lng	Accelerometer_x	Accelerometer_y	Accelerometer_z	Gyroscope_x	Gyroscope_y	Gyroscope_z	Magnetometer_x	Magnetometer_y	Magnetometer_z
2017-08-17 14:02:33.912988	lat	lng	0.005615234375	1.01611328125	-0.0048828125	2.3969465648854964	-0.1984732824427481	1.0687022900763359	167.4	117.0	-69.0
2017-08-17 14:02:33.945644	lat	lng	0.010498046875	1.017333984375	-0.0009765625	2.6106870229007635	0.16793893129770993	1.0687022900763359	167.4	117.0	-69.0
2017-08-17 14:02:33.962806	lat	lng	0.008056640625	1.014892578125	0.0	2.549618320610687	0.07633587786259542	0.8244274809160306	167.4	117.0	-69.0
2017-08-17 14:02:33.979317	lat	lng	0.006591796875	1.0205078125	-0.00244140625	2.427480916030534	0.030534351145038167	0.9618320610687023	167.4	117.0	-69.0
2017-08-17 14:02:33.996465	lat	lng	0.006591796875	1.0166015625	0.00390625	2.6412213740458017	-0.16793893129770993	1.0381679389312977	167.4	117.0	-69.0
2017-08-17 14:02:34.013086	lat	lng	0.005859375	1.015625	0.00537109375	2.4427480916030535	-0.1984732824427481	1.083969465648855	167.4	117.0	-69.0
2017-08-17 14:02:34.030641	lat	lng	0.009521484375	1.017578125	-0.00537109375	2.351145038167939	0.015267175572519083	0.916030534351145	167.4	117.0	-69.0
2017-08-17 14:02:34.047168	lat	lng	0.0078125	1.0146484375	0.00634765625	2.50381679389313	0.21374045801526717	0.9007633587786259	167.4	117.0	-69.0
2017-08-17 14:02:34.065783	lat	lng	0.005126953125	1.01806640625	-0.00048828125	2.351145038167939	0.10687022900763359	0.9923664122137404	167.4	117.0	-69.0
2017-08-17 14:02:34.083449	lat	lng	0.0078125	1.019775390625	-0.001953125	2.595419847328244	0.015267175572519083	0.9923664122137404	167.4	117.0	-69.0
2017-08-17 14:02:34.101905	lat	lng	0.006591796875	1.017578125	-0.00048828125	2.4885496183206106	-3.9083969465648853	0.6870229007633588	167.4	117.0	-69.0
2017-08-17 14:02:34.119804	lat	lng	0.0009765625	1.01708984375	-0.001708984375	2.3206106870229006	0.061068702290076333	0.9618320610687023	167.4	117.0	-69.0
2017-08-17 14:02:34.138372	lat	lng	0.006103515625	1.019775390625	0.00537109375	2.3969465648854964	-0.3053435114503817	0.8244274809160306	167.4	117.0	-69.0
2017-08-17 14:02:34.156533	lat	lng	0.00341796875	1.016357421875	0.003662109375	2.351145038167939	0.12213740458015267	0.9465648854961832	167.4	117.0	-69.0
2017-08-17 14:02:34.174455	lat	lng	0.004150390625	1.018310546875	-0.001953125	2.3206106870229006	0.0	0.8854961832061069	167.4	117.0	-69.0
2017-08-17 14:02:34.192274	lat	lng	0.00341796875	1.016845703125	0.000244140625	2.351145038167939	-0.183206106870229	1.0229007633587786	167.4	117.0	-69.0
2017-08-17 14:02:34.209739	lat	lng	0.004150390625	1.01318359375	-0.0009765625	2.50381679389313	-0.04580152671755725	0.8702290076335878	167.4	117.0	-69.0
2017-08-17 14:02:34.228053	lat	lng	0.010498046875	1.019287109375	-0.00048828125	2.595419847328244	0.07633587786259542	1.0381679389312977	167.4	117.0	-69.0
2017-08-17 14:02:34.245899	lat	lng	0.008544921875	1.017822265625	0.000244140625	2.427480916030534	-0.10687022900763359	0.9312977099236641	167.4	117.0	-69.0
2017-08-17 14:02:34.264488	lat	lng	0.00390625	1.016357421875	-0.002685546875	2.6412213740458017	-0.183206106870229	0.6412213740458015	167.4	117.0	-69.0
2017-08-17 14:02:34.283254	lat	lng	0.005859375	1.01708984375	-0.001708984375	2.3053435114503817	-0.2595419847328244	1.0076335877862594	167.4	117.0	-69.0
2017-08-17 14:02:34.302282	lat	lng	0.00439453125	1.017333984375	-0.001220703125	2.045801526717557	-3.9083969465648853	0.9923664122137404	167.4	117.0	-69.0
2017-08-17 14:02:34.318987	lat	lng	0.0048828125	1.01513671875	0.000732421875	2.427480916030534	-0.0916030534351145	0.8854961832061069	167.4	117.0	-69.0
2017-08-17 14:02:34.336097	lat	lng	0.00439453125	1.01708984375	0.00048828125	2.2748091603053435	0.030534351145038167	0.9007633587786259	167.4	117.0	-69.0
2017-08-17 14:02:34.352541	lat	lng	0.007080078125	1.016845703125	0.001708984375	2.3969465648854964	-0.061068702290076333	0.9770992366412213	167.4	117.0	-69.0
2017-08-17 14:02:34.374467	lat	lng	0.005615234375	1.02001953125	0.000732421875	2.6259541984732824	-0.030534351145038167	0.916030534351145	167.4	117.0	-69.0
2017-08-17 14:02:34.391191	lat	lng	0.005126953125	1.015625	-0.001953125	2.50381679389313	-0.07633587786259542	0.9923664122137404	167.4	117.0	-69.0
2017-08-17 14:02:34.410276	lat	lng	0.007080078125	1.016845703125	0.001220703125	2.4732824427480917	-0.22900763358778625	0.8549618320610687	167.4	117.0	-69.0
2017-08-17 14:02:34.426782	lat	lng	0.003662109375	1.01513671875	0.0009765625	2.6259541984732824	-0.04580152671755725	1.0687022900763359	167.4	117.0	-69.0
2017-08-17 14:02:34.445438	lat	lng	0.004150390625	1.017333984375	0.001220703125	2.4427480916030535	-0.061068702290076333	0.9007633587786259	167.4	117.0	-69.0
2017-08-17 14:02:34.462422	lat	lng	0.00439453125	1.021240234375	0.00244140625	2.351145038167939	0.04580152671755725	0.916030534351145	167.4	117.0	-69.0
2017-08-17 14:02:34.481807	lat	lng	0.00732421875	1.013916015625	-0.00341796875	2.2900763358778624	-0.04580152671755725	0.8549618320610687	167.4	117.0	-69.0
2017-08-17 14:02:34.515466	lat	lng	0.002197265625	1.01953125	0.00341796875	2.50381679389313	-0.10687022900763359	0.8396946564885496	167.4	117.0	-69.0
2017-08-17 14:02:34.538583	lat	lng	0.00341796875	1.015869140625	-0.008056640625	2.366412213740458	0.15267175572519084	1.083969465648855	167.4	117.0	-69.0
2017-08-17 14:02:34.562771	lat	lng	0.005126953125	1.01513671875	0.001708984375	2.6259541984732824	0.04580152671755725	0.9923664122137404	167.4	117.0	-69.0
2017-08-17 14:02:34.586955	lat	lng	0.005615234375	1.013916015625	-0.0009765625	2.4732824427480917	0.183206106870229	1.1450381679389312	167.4	117.0	-69.0
2017-08-17 14:02:34.611306	lat	lng	0.0029296875	1.018310546875	-0.00439453125	2.4885496183206106	-0.15267175572519084	0.9618320610687023	167.4	117.0	-69.0
2017-08-17 14:02:34.633778	lat	lng	0.000244140625	1.014404296875	-0.00634765625	2.595419847328244	0.04580152671755725	0.8549618320610687	167.4	117.0	-69.0
2017-08-17 14:02:34.655892	lat	lng	0.001708984375	1.01953125	0.000244140625	2.351145038167939	-0.07633587786259542	0.7633587786259542	167.4	117.0	-69.0
2017-08-17 14:02:34.677337	lat	lng	0.007568359375	1.015869140625	0.02783203125	2.4122137404580153	-0.015267175572519083	0.8549618320610687	167.4	117.0	-69.0
2017-08-17 14:02:34.698738	lat	lng	0.006591796875	1.015625	0.002685546875	2.366412213740458	0.16793893129770993	1.0076335877862594	167.4	117.0	-69.0
2017-08-17 14:02:34.721829	lat	lng	0.005615234375	1.018798828125	-0.0087890625	2.5343511450381677	0.10687022900763359	0.8549618320610687	167.4	117.0	-69.0
2017-08-17 14:02:34.746226	lat	lng	0.0048828125	1.01611328125	-0.004638671875	2.2900763358778624	0.030534351145038167	0.916030534351145	167.4	117.0	-69.0
2017-08-17 14:02:34.769892	lat	lng	0.000732421875	1.01416015625	-0.0078125	2.5801526717557253	0.030534351145038167	0.9312977099236641	167.4	117.0	-69.0
2017-08-17 14:02:34.795638	lat	lng	-0.000732421875	1.018798828125	0.0	2.4122137404580153	0.04580152671755725	0.7938931297709924	167.4	117.0	-69.0
2017-08-17 14:02:34.813984	lat	lng	0.001708984375	1.01611328125	-0.0068359375	2.2748091603053435	0.32061068702290074	0.9312977099236641	167.4	117.0	-69.0
2017-08-17 14:02:34.837791	lat	lng	0.002685546875	1.015625	-0.00439453125	2.351145038167939	0.04580152671755725	0.9465648854961832	167.4	117.0	-69.0
2017-08-17 14:02:34.855643	lat	lng	0.004150390625	1.015869140625	-0.004638671875	2.2595419847328246	0.0916030534351145	1.0381679389312977	167.4	117.0	-69.0
2017-08-17 14:02:34.874806	lat	lng	0.004150390625	1.02001953125	0.00146484375	2.122137404580153	0.183206106870229	0.8549618320610687	167.4	117.0	-69.0
2017-08-17 14:02:34.894586	lat	lng	0.00732421875	1.0126953125	0.0	2.4580152671755724	0.061068702290076333	0.7175572519083969	167.4	117.0	-69.0
2017-08-17 14:02:34.911328	lat	lng	0.00341796875	1.018798828125	-0.003662109375	2.564885496183206	-0.183206106870229	0.9618320610687023	167.4	117.0	-69.0
2017-08-17 14:02:34.928173	lat	lng	0.00390625	1.021484375	-0.00146484375	2.16793893129771	0.12213740458015267	0.916030534351145	167.4	117.0	-69.0
2017-08-17 14:02:34.945022	lat	lng	0.006103515625	1.019775390625	-0.0029296875	2.4122137404580153	3.877862595419847	0.9465648854961832	167.4	117.0	-69.0
2017-08-17 14:02:34.961603	lat	lng	0.00390625	1.02392578125	-0.001953125	2.381679389312977	0.04580152671755725	0.9007633587786259	167.4	117.0	-69.0
2017-08-17 14:02:34.978530	lat	lng	0.0048828125	1.019287109375	0.001953125	2.5343511450381677	0.0916030534351145	0.7786259541984732	167.4	117.0	-69.0
2017-08-17 14:02:34.995455	lat	lng	0.00732421875	1.0166015625	-0.001220703125	2.183206106870229	0.21374045801526717	1.0687022900763359	167.4	117.0	-69.0
2017-08-17 14:02:35.013664	lat	lng	0.006591796875	1.009521484375	-0.001953125	2.2748091603053435	0.030534351145038167	1.0687022900763359	167.4	117.0	-69.0
2017-08-17 14:02:35.030249	lat	lng	0.0009765625	1.02197265625	0.002197265625	2.519083969465649	0.04580152671755725	0.8549618320610687	167.4	117.0	-69.0
2017-08-17 14:02:35.048029	lat	lng	0.003662109375	1.0185546875	-0.002685546875	2.50381679389313	0.030534351145038167	1.2213740458015268	167.4	117.0	-69.0
2017-08-17 14:02:35.065020	lat	lng	0.006103515625	1.01123046875	-0.0029296875	2.427480916030534	0.07633587786259542	0.8244274809160306	167.4	117.0	-69.0
2017-08-17 14:02:35.082050	lat	lng	0.008544921875	1.023193359375	0.0	2.4427480916030535	0.030534351145038167	0.9923664122137404	167.4	117.0	-69.0
2017-08-17 14:02:35.101018	lat	lng	0.009033203125	1.017578125	0.00439453125	2.4580152671755724	-0.15267175572519084	0.8549618320610687	167.4	117.0	-69.0
2017-08-17 14:02:35.120841	lat	lng	0.003662109375	1.017333984375	0.007568359375	2.5801526717557253	-0.22900763358778625	0.9618320610687023	167.4	117.0	-69.0
2017-08-17 14:02:35.139927	lat	lng	0.00341796875	1.01171875	0.00146484375	2.519083969465649	-0.015267175572519083	0.8244274809160306	167.4	117.0	-69.0
2017-08-17 14:02:35.159078	lat	lng	0.030517578125	1.015869140625	0.0029296875	2.6412213740458017	0.12213740458015267	1.1908396946564885	167.4	117.0	-69.0
2017-08-17 14:02:35.184434	lat	lng	0.00439453125	1.0185546875	0.00048828125	2.4122137404580153	0.07633587786259542	1.0076335877862594	167.4	117.0	-69.0
2017-08-17 14:02:35.202082	lat	lng	0.0068359375	1.0185546875	0.00146484375	2.1526717557251906	0.21374045801526717	0.9007633587786259	167.4	117.0	-69.0
2017-08-17 14:02:35.222444	lat	lng	0.00927734375	1.02001953125	-0.002685546875	2.6412213740458017	0.015267175572519083	0.8702290076335878	167.4	117.0	-69.0
2017-08-17 14:02:35.241779	lat	lng	0.006591796875	1.015625	0.0	2.5801526717557253	-0.12213740458015267	0.6870229007633588	167.4	117.0	-69.0
2017-08-17 14:02:35.261769	lat	lng	0.0068359375	1.017822265625	-0.0048828125	2.4732824427480917	-0.030534351145038167	0.7786259541984732	167.4	117.0	-69.0
2017-08-17 14:02:35.280842	lat	lng	0.00537109375	1.013671875	-0.0009765625	2.2900763358778624	0.061068702290076333	0.9312977099236641	167.4	117.0	-69.0
2017-08-17 14:02:35.299974	lat	lng	0.005126953125	1.01953125	-0.003173828125	2.427480916030534	3.8931297709923665	1.0687022900763359	167.4	117.0	-69.0
2017-08-17 14:02:35.320532	lat	lng	0.005859375	1.02099609375	-0.00244140625	2.5343511450381677	0.015267175572519083	0.8396946564885496	167.4	117.0	-69.0
2017-08-17 14:02:35.339488	lat	lng	0.00732421875	1.019287109375	0.003173828125	2.366412213740458	0.0916030534351145	0.9312977099236641	167.4	117.0	-69.0
2017-08-17 14:02:35.359998	lat	lng	0.008056640625	1.0185546875	-0.00048828125	2.3206106870229006	0.015267175572519083	0.7786259541984732	167.4	117.0	-69.0
2017-08-17 14:02:35.379295	lat	lng	0.00537109375	1.01513671875	0.00146484375	2.4885496183206106	0.04580152671755725	0.7175572519083969	167.4	117.0	-69.0
2017-08-17 14:02:35.398975	lat	lng	0.00390625	1.014404296875	-0.005615234375	2.6259541984732824	-0.030534351145038167	1.1755725190839694	167.4	117.0	-69.0
2017-08-17 14:02:35.418132	lat	lng	0.007080078125	1.015380859375	0.008056640625	2.6717557251908395	-0.183206106870229	0.916030534351145	167.4	117.0	-69.0
2017-08-17 14:02:35.437155	lat	lng	0.0068359375	1.016357421875	0.006103515625	2.366412213740458	-0.061068702290076333	1.3435114503816794	167.4	117.0	-69.0
2017-08-17 14:02:35.457620	lat	lng	0.009033203125	1.019287109375	-0.002685546875	2.5343511450381677	-0.015267175572519083	0.8549618320610687	167.4	117.0	-69.0
2017-08-17 14:02:35.476539	lat	lng	0.00634765625	1.01513671875	-0.010009765625	2.7022900763358777	0.2748091603053435	0.732824427480916	167.4	117.0	-69.0
2017-08-17 14:02:35.497210	lat	lng	0.008056640625	1.01708984375	-0.001953125	2.4885496183206106	-0.2595419847328244	0.9770992366412213	167.4	117.0	-69.0
2017-08-17 14:02:35.518651	lat	lng	0.00537109375	1.015869140625	-0.003173828125	2.427480916030534	0.015267175572519083	0.7786259541984732	167.4	117.0	-69.0
2017-08-17 14:02:35.542875	lat	lng	0.00732421875	1.017822265625	-0.002197265625	2.4580152671755724	-0.015267175572519083	1.0534351145038168	167.4	117.0	-69.0
2017-08-17 14:02:35.563769	lat	lng	0.0087890625	1.01611328125	-0.003662109375	2.6259541984732824	0.24427480916030533	1.0534351145038168	167.4	117.0	-69.0
2017-08-17 14:02:35.586148	lat	lng	0.009521484375	1.0166015625	-0.0029296875	2.4427480916030535	3.8625954198473282	1.0534351145038168	167.4	117.0	-69.0
2017-08-17 14:02:35.607839	lat	lng	0.00537109375	1.016845703125	-0.0009765625	2.3969465648854964	-0.13740458015267176	0.9312977099236641	167.4	117.0	-69.0
2017-08-17 14:02:35.629863	lat	lng	0.00390625	1.017822265625	-0.003173828125	2.33587786259542	-0.2595419847328244	0.8702290076335878	167.4	117.0	-69.0
2017-08-17 14:02:35.660560	lat	lng	0.007568359375	1.018798828125	-0.002197265625	2.2900763358778624	0.0916030534351145	0.9770992366412213	167.4	117.0	-69.0
2017-08-17 14:02:35.682553	lat	lng	0.0068359375	1.015625	-0.004150390625	2.4885496183206106	0.15267175572519084	0.7022900763358778	167.4	117.0	-69.0
2017-08-17 14:02:35.705596	lat	lng	0.009033203125	1.019775390625	0.001220703125	2.549618320610687	-0.015267175572519083	1.083969465648855	167.4	117.0	-69.0
2017-08-17 14:02:35.728834	lat	lng	0.010498046875	1.017822265625	-0.003173828125	2.4122137404580153	0.04580152671755725	0.8549618320610687	167.4	117.0	-69.0
2017-08-17 14:02:35.752082	lat	lng	0.009765625	1.0185546875	-0.031005859375	2.4732824427480917	0.015267175572519083	1.0381679389312977	167.4	117.0	-69.0
2017-08-17 14:02:35.776330	lat	lng	0.00634765625	1.021240234375	0.00146484375	2.366412213740458	-0.10687022900763359	0.8854961832061069	167.4	117.0	-69.0
2017-08-17 14:02:35.797943	lat	lng	0.00439453125	1.017578125	0.003662109375	2.3053435114503817	0.33587786259541985	0.8091603053435115	167.4	117.0	-69.0
2017-08-17 14:02:35.814904	lat	lng	0.00439453125	1.019775390625	0.00244140625	2.4427480916030535	-0.24427480916030533	0.8702290076335878	167.4	117.0	-69.0
2017-08-17 14:02:35.832022	lat	lng	0.002685546875	1.018310546875	0.000244140625	2.50381679389313	-0.16793893129770993	0.8854961832061069	167.4	117.0	-69.0
2017-08-17 14:02:35.849219	lat	lng	0.00341796875	1.018798828125	0.003173828125	2.3969465648854964	0.10687022900763359	1.0076335877862594	167.4	117.0	-69.0
2017-08-17 14:02:35.866540	lat	lng	0.007568359375	1.0146484375	0.00341796875	2.595419847328244	-0.07633587786259542	1.0076335877862594	167.4	117.0	-69.0
2017-08-17 14:02:35.883564	lat	lng	0.00732421875	1.021484375	0.003662109375	2.5801526717557253	0.183206106870229	0.8396946564885496	167.4	117.0	-69.0
2017-08-17 14:02:35.900678	lat	lng	0.005615234375	1.018798828125	-0.00048828125	2.4122137404580153	-0.1984732824427481	0.8244274809160306	167.4	117.0	-69.0
2017-08-17 14:02:35.917456	lat	lng	0.010009765625	1.0166015625	-0.000244140625	2.3053435114503817	-0.1984732824427481	0.9618320610687023	167.4	117.0	-69.0
2017-08-17 14:02:35.934622	lat	lng	0.00390625	1.0185546875	-0.00146484375	2.2442748091603053	-0.10687022900763359	0.7633587786259542	167.4	117.0	-69.0
2017-08-17 14:02:35.951925	lat	lng	0.006591796875	1.016845703125	-0.0009765625	2.4580152671755724	0.07633587786259542	0.8244274809160306	167.4	117.0	-69.0
2017-08-17 14:02:35.973856	lat	lng	0.004638671875	1.017578125	0.00390625	2.595419847328244	-0.07633587786259542	0.8702290076335878	167.4	117.0	-69.0
2017-08-17 14:02:35.990892	lat	lng	0.005126953125	1.0205078125	-0.000244140625	2.2290076335877864	0.183206106870229	0.8244274809160306	167.4	117.0	-69.0
2017-08-17 14:02:36.010363	lat	lng	0.0048828125	1.022216796875	0.003662109375	2.519083969465649	-0.07633587786259542	0.6717557251908397	167.4	117.0	-69.0
2017-08-17 14:02:36.026840	lat	lng	0.00537109375	1.015380859375	-0.003662109375	2.564885496183206	-0.04580152671755725	0.8549618320610687	167.4	117.0	-69.0
2017-08-17 14:02:36.043458	lat	lng	0.004638671875	1.01953125	0.0029296875	2.2748091603053435	0.030534351145038167	1.0687022900763359	167.4	117.0	-69.0
2017-08-17 14:02:36.059828	lat	lng	0.00244140625	1.017333984375	-0.0048828125	2.4885496183206106	-0.07633587786259542	0.9465648854961832	167.4	117.0	-69.0
2017-08-17 14:02:36.083130	lat	lng	0.00537109375	1.01806640625	0.002685546875	2.6259541984732824	-3.9083969465648853	0.9007633587786259	167.4	117.0	-69.0
2017-08-17 14:02:36.099577	lat	lng	0.00390625	1.017822265625	-0.002197265625	2.4427480916030535	0.061068702290076333	0.8854961832061069	167.4	117.0	-69.0
2017-08-17 14:02:36.121630	lat	lng	0.00537109375	1.016357421875	0.00390625	2.3053435114503817	0.0	0.8854961832061069	167.4	117.0	-69.0
2017-08-17 14:02:36.137979	lat	lng	0.00634765625	1.014892578125	0.002197265625	2.4122137404580153	0.061068702290076333	0.916030534351145	167.4	117.0	-69.0
2017-08-17 14:02:36.155768	lat	lng	0.005615234375	1.01904296875	0.001953125	2.519083969465649	-0.10687022900763359	0.9770992366412213	167.4	117.0	-69.0
2017-08-17 14:02:36.177496	lat	lng	0.005615234375	1.015380859375	0.0	2.50381679389313	0.07633587786259542	0.732824427480916	167.4	117.0	-69.0
2017-08-17 14:02:36.194368	lat	lng	0.008544921875	1.021728515625	0.00146484375	2.4427480916030535	-0.030534351145038167	0.7938931297709924	167.4	117.0	-69.0
2017-08-17 14:02:36.210875	lat	lng	0.00439453125	1.017578125	-0.001953125	2.4580152671755724	0.07633587786259542	0.8854961832061069	167.4	117.0	-69.0
2017-08-17 14:02:36.227781	lat	lng	0.003173828125	1.015380859375	-0.02978515625	2.519083969465649	0.061068702290076333	0.8396946564885496	167.4	117.0	-69.0
2017-08-17 14:02:36.244248	lat	lng	0.0068359375	1.01806640625	0.00390625	2.4580152671755724	0.030534351145038167	0.8854961832061069	167.4	117.0	-69.0
2017-08-17 14:02:36.260855	lat	lng	0.005615234375	1.019287109375	0.0029296875	2.3969465648854964	-0.04580152671755725	0.7938931297709924	167.4	117.0	-69.0
2017-08-17 14:02:36.277138	lat	lng	0.006591796875	1.0166015625	0.003662109375	2.6412213740458017	-0.15267175572519084	0.8702290076335878	167.4	117.0	-69.0
2017-08-17 14:02:36.295614	lat	lng	0.004638671875	1.022705078125	0.000732421875	2.381679389312977	0.07633587786259542	1.1908396946564885	167.4	117.0	-69.0
2017-08-17 14:02:36.311920	lat	lng	0.004150390625	1.01611328125	0.005126953125	2.4122137404580153	-0.04580152671755725	1.0229007633587786	167.4	117.0	-69.0
2017-08-17 14:02:36.330454	lat	lng	0.001708984375	1.013671875	0.003662109375	2.4427480916030535	0.061068702290076333	0.8702290076335878	167.4	117.0	-69.0
2017-08-17 14:02:36.347293	lat	lng	0.00146484375	1.017822265625	0.00244140625	2.5801526717557253	-0.16793893129770993	0.8091603053435115	167.4	117.0	-69.0
2017-08-17 14:02:36.365046	lat	lng	0.003173828125	1.016845703125	0.002197265625	2.4885496183206106	0.07633587786259542	1.1145038167938932	167.4	117.0	-69.0
2017-08-17 14:02:36.381740	lat	lng	0.00244140625	1.015380859375	0.029296875	2.4427480916030535	-0.0916030534351145	0.7938931297709924	167.4	117.0	-69.0
2017-08-17 14:02:36.400082	lat	lng	0.004638671875	1.014404296875	0.005615234375	2.717557251908397	0.16793893129770993	0.9923664122137404	167.4	117.0	-69.0
2017-08-17 14:02:36.422422	lat	lng	0.0048828125	1.016845703125	0.00732421875	2.4427480916030535	-0.12213740458015267	1.0687022900763359	167.4	117.0	-69.0
2017-08-17 14:02:36.440528	lat	lng	0.003662109375	1.015869140625	0.0029296875	2.4732824427480917	-0.04580152671755725	0.9618320610687023	167.4	117.0	-69.0
2017-08-17 14:02:36.463964	lat	lng	0.004150390625	1.022216796875	-0.007568359375	2.5343511450381677	-0.061068702290076333	1.0076335877862594	167.4	117.0	-69.0
2017-08-17 14:02:36.480586	lat	lng	0.00244140625	1.019287109375	-0.004150390625	2.2290076335877864	0.030534351145038167	0.9923664122137404	167.4	117.0	-69.0
2017-08-17 14:02:36.501415	lat	lng	0.00537109375	1.017822265625	0.003173828125	2.213740458015267	-0.12213740458015267	1.0534351145038168	167.4	117.0	-69.0
2017-08-17 14:02:36.524113	lat	lng	0.00341796875	1.013916015625	-0.000244140625	2.4885496183206106	0.015267175572519083	0.916030534351145	167.4	117.0	-69.0
2017-08-17 14:02:36.547942	lat	lng	0.0068359375	1.014404296875	-0.00341796875	2.4580152671755724	-0.22900763358778625	0.9770992366412213	167.4	117.0	-69.0
2017-08-17 14:02:36.570615	lat	lng	0.008544921875	1.015380859375	0.002685546875	2.564885496183206	0.0	0.7480916030534351	167.4	117.0	-69.0
2017-08-17 14:02:36.593890	lat	lng	0.001953125	1.017822265625	-0.0048828125	2.6717557251908395	-0.030534351145038167	0.9923664122137404	167.4	117.0	-69.0
2017-08-17 14:02:36.619261	lat	lng	0.006591796875	1.017578125	-0.00244140625	2.687022900763359	-0.183206106870229	0.9618320610687023	167.4	117.0	-69.0
2017-08-17 14:02:36.641628	lat	lng	0.00537109375	1.01416015625	0.001953125	2.2900763358778624	-0.13740458015267176	0.916030534351145	167.4	117.0	-69.0
2017-08-17 14:02:36.666344	lat	lng	0.008544921875	1.01708984375	0.0048828125	2.2900763358778624	0.0916030534351145	0.6717557251908397	167.4	117.0	-69.0
2017-08-17 14:02:36.690744	lat	lng	0.003173828125	1.01953125	0.0	2.381679389312977	0.15267175572519084	1.083969465648855	167.4	117.0	-69.0
2017-08-17 14:02:36.713189	lat	lng	0.005615234375	1.017822265625	0.010009765625	2.50381679389313	-3.8931297709923665	1.0534351145038168	167.4	117.0	-69.0
2017-08-17 14:02:36.737504	lat	lng	0.005615234375	1.01708984375	0.0009765625	2.5801526717557253	-0.15267175572519084	0.7633587786259542	167.4	117.0	-69.0
2017-08-17 14:02:36.761440	lat	lng	0.004150390625	1.017822265625	-0.00341796875	2.4885496183206106	-0.061068702290076333	1.0229007633587786	167.4	117.0	-69.0
2017-08-17 14:02:36.786512	lat	lng	0.004638671875	1.017822265625	0.004638671875	2.50381679389313	0.07633587786259542	1.0687022900763359	167.4	117.0	-69.0
2017-08-17 14:02:36.807774	lat	lng	0.00390625	1.01806640625	-0.007568359375	2.381679389312977	-0.07633587786259542	0.8702290076335878	167.4	117.0	-69.0
2017-08-17 14:02:36.825878	lat	lng	0.002685546875	1.019775390625	-0.010498046875	2.33587786259542	-0.183206106870229	0.9465648854961832	167.4	117.0	-69.0
2017-08-17 14:02:36.844681	lat	lng	0.00830078125	1.016357421875	0.004150390625	2.595419847328244	-0.13740458015267176	0.8854961832061069	167.4	117.0	-69.0
2017-08-17 14:02:36.862435	lat	lng	0.006591796875	1.02001953125	0.001220703125	2.427480916030534	-0.0916030534351145	0.9465648854961832	167.4	117.0	-69.0
2017-08-17 14:02:36.879947	lat	lng	0.005615234375	1.017578125	-0.003173828125	2.5343511450381677	-0.04580152671755725	1.1603053435114503	167.4	117.0	-69.0
2017-08-17 14:02:36.897699	lat	lng	0.004638671875	1.018310546875	0.003662109375	2.213740458015267	-0.3053435114503817	1.1297709923664123	167.4	117.0	-69.0
2017-08-17 14:02:36.915863	lat	lng	0.008544921875	1.019287109375	-0.001708984375	2.3206106870229006	0.0916030534351145	0.8702290076335878	167.4	117.0	-69.0
2017-08-17 14:02:36.933548	lat	lng	0.0078125	1.015869140625	-0.001708984375	2.6717557251908395	0.061068702290076333	0.7480916030534351	167.4	117.0	-69.0
2017-08-17 14:02:36.951936	lat	lng	0.00146484375	1.0185546875	-0.007568359375	2.2748091603053435	0.015267175572519083	1.0687022900763359	167.4	117.0	-69.0
2017-08-17 14:02:36.969634	lat	lng	0.00537109375	1.017333984375	0.006591796875	2.4580152671755724	-0.12213740458015267	0.8549618320610687	167.4	117.0	-69.0
2017-08-17 14:02:36.988526	lat	lng	0.00341796875	1.01611328125	-0.002197265625	2.50381679389313	-0.07633587786259542	0.9007633587786259	167.4	117.0	-69.0
2017-08-17 14:02:37.007082	lat	lng	0.006103515625	1.0166015625	-0.000732421875	2.6106870229007635	-0.21374045801526717	1.2213740458015268	167.4	117.0	-69.0
2017-08-17 14:02:37.026654	lat	lng	0.005126953125	1.017333984375	0.003662109375	2.427480916030534	-0.1984732824427481	1.0229007633587786	167.4	117.0	-69.0
2017-08-17 14:02:37.048747	lat	lng	0.0048828125	1.014404296875	0.00146484375	2.4580152671755724	-0.0916030534351145	0.9465648854961832	167.4	117.0	-69.0
2017-08-17 14:02:37.067745	lat	lng	0.00341796875	1.016357421875	-0.0029296875	2.381679389312977	-0.13740458015267176	1.0534351145038168	167.4	117.0	-69.0
2017-08-17 14:02:37.085421	lat	lng	0.00390625	1.018310546875	-0.00146484375	2.6259541984732824	-0.15267175572519084	0.9465648854961832	167.4	117.0	-69.0
2017-08-17 14:02:37.105368	lat	lng	0.004150390625	1.01708984375	-0.000244140625	2.33587786259542	-0.24427480916030533	0.9618320610687023	167.4	117.0	-69.0
2017-08-17 14:02:37.123915	lat	lng	0.00244140625	1.01904296875	0.0029296875	2.4122137404580153	-0.015267175572519083	0.7175572519083969	167.4	117.0	-69.0
2017-08-17 14:02:37.141959	lat	lng	0.005126953125	1.021484375	0.00048828125	2.4732824427480917	0.15267175572519084	1.083969465648855	167.4	117.0	-69.0
2017-08-17 14:02:37.158816	lat	lng	0.0087890625	1.021240234375	0.000732421875	2.4122137404580153	-0.183206106870229	1.099236641221374	167.4	117.0	-69.0
2017-08-17 14:02:37.177924	lat	lng	0.00537109375	1.01953125	0.001708984375	2.33587786259542	0.07633587786259542	0.8244274809160306	167.4	117.0	-69.0
2017-08-17 14:02:37.194922	lat	lng	0.0048828125	1.015869140625	-0.0048828125	2.16793893129771	-0.04580152671755725	0.9007633587786259	167.4	117.0	-69.0
2017-08-17 14:02:37.211777	lat	lng	0.0078125	1.016845703125	-0.00048828125	2.3053435114503817	0.04580152671755725	0.8549618320610687	167.4	117.0	-69.0
2017-08-17 14:02:37.228680	lat	lng	0.007080078125	1.02099609375	-0.000732421875	2.4580152671755724	0.04580152671755725	1.0076335877862594	167.4	117.0	-69.0
2017-08-17 14:02:37.245706	lat	lng	0.0029296875	1.014404296875	0.007080078125	2.6412213740458017	-0.2900763358778626	0.8091603053435115	167.4	117.0	-69.0
2017-08-17 14:02:37.262664	lat	lng	0.008056640625	1.021240234375	0.00341796875	2.2748091603053435	0.015267175572519083	0.9465648854961832	167.4	117.0	-69.0
2017-08-17 14:02:37.282422	lat	lng	0.003662109375	1.022705078125	0.00048828125	2.2748091603053435	-0.04580152671755725	0.9770992366412213	167.4	117.0	-69.0
2017-08-17 14:02:37.300843	lat	lng	0.0029296875	1.0185546875	-0.003173828125	2.4427480916030535	0.22900763358778625	0.9770992366412213	167.4	117.0	-69.0
2017-08-17 14:02:37.320273	lat	lng	0.009521484375	1.016845703125	0.00390625	2.732824427480916	-0.183206106870229	1.083969465648855	167.4	117.0	-69.0
2017-08-17 14:02:37.339291	lat	lng	0.005859375	1.0146484375	-0.000244140625	2.549618320610687	0.22900763358778625	0.7938931297709924	167.4	117.0	-69.0
2017-08-17 14:02:37.357029	lat	lng	0.004638671875	1.01806640625	-0.0048828125	2.6259541984732824	0.015267175572519083	0.8091603053435115	167.4	117.0	-69.0
2017-08-17 14:02:37.374504	lat	lng	0.0087890625	1.016357421875	0.002197265625	2.595419847328244	-0.07633587786259542	1.099236641221374	167.4	117.0	-69.0
2017-08-17 14:02:37.391671	lat	lng	0.008056640625	1.016357421875	0.003662109375	2.5801526717557253	0.07633587786259542	1.0229007633587786	167.4	117.0	-69.0
2017-08-17 14:02:37.408936	lat	lng	0.0068359375	1.020751953125	-0.0048828125	2.564885496183206	0.030534351145038167	0.9770992366412213	167.4	117.0	-69.0
2017-08-17 14:02:37.426498	lat	lng	0.005126953125	1.020263671875	-0.006103515625	2.519083969465649	0.061068702290076333	0.9312977099236641	167.4	117.0	-69.0
2017-08-17 14:02:37.444089	lat	lng	0.007080078125	1.0205078125	0.030029296875	2.5801526717557253	0.10687022900763359	0.7175572519083969	167.4	117.0	-69.0
2017-08-17 14:02:37.461341	lat	lng	0.0	1.015380859375	0.004638671875	2.427480916030534	-0.015267175572519083	0.8244274809160306	167.4	117.0	-69.0
2017-08-17 14:02:37.481421	lat	lng	0.00732421875	1.01513671875	-0.0009765625	2.4427480916030535	-0.15267175572519084	0.9618320610687023	167.4	117.0	-69.0
2017-08-17 14:02:37.498717	lat	lng	-0.000244140625	1.014892578125	0.007080078125	2.427480916030534	0.0	0.9007633587786259	167.4	117.0	-69.0
2017-08-17 14:02:37.522533	lat	lng	0.00634765625	1.015869140625	-0.00634765625	2.4580152671755724	0.24427480916030533	0.8854961832061069	167.4	117.0	-69.0
2017-08-17 14:02:37.545695	lat	lng	0.007080078125	1.02001953125	0.0029296875	2.4122137404580153	-0.015267175572519083	0.7175572519083969	167.4	117.0	-69.0
2017-08-17 14:02:37.569104	lat	lng	0.00537109375	1.019775390625	-0.005859375	2.381679389312977	0.0	0.9465648854961832	167.4	117.0	-69.0
2017-08-17 14:02:37.589585	lat	lng	0.007568359375	1.016357421875	-0.000732421875	2.564885496183206	-0.030534351145038167	0.7480916030534351	167.4	117.0	-69.0
2017-08-17 14:02:37.610796	lat	lng	0.005859375	1.015869140625	-0.002685546875	2.3969465648854964	0.1984732824427481	1.1450381679389312	167.4	117.0	-69.0
2017-08-17 14:02:37.631898	lat	lng	0.006591796875	1.017578125	-0.00244140625	2.2900763358778624	0.15267175572519084	0.8396946564885496	167.4	117.0	-69.0
2017-08-17 14:02:37.652610	lat	lng	0.009521484375	1.017578125	-0.005615234375	2.3969465648854964	-0.16793893129770993	1.0381679389312977	167.4	117.0	-69.0
2017-08-17 14:02:37.679036	lat	lng	0.006591796875	1.0185546875	-0.0009765625	2.4427480916030535	0.0916030534351145	0.9465648854961832	167.4	117.0	-69.0
2017-08-17 14:02:37.704709	lat	lng	0.002685546875	1.0166015625	-0.002197265625	2.33587786259542	-0.015267175572519083	0.9312977099236641	167.4	117.0	-69.0
2017-08-17 14:02:37.731574	lat	lng	0.006103515625	1.020751953125	-0.0048828125	2.33587786259542	-0.015267175572519083	1.0534351145038168	167.4	117.0	-69.0
2017-08-17 14:02:37.768372	lat	lng	0.00146484375	1.021484375	0.0	2.213740458015267	0.07633587786259542	0.8244274809160306	167.4	117.0	-69.0
2017-08-17 14:02:37.791940	lat	lng	0.002685546875	1.017822265625	-0.008056640625	2.427480916030534	0.0916030534351145	0.9618320610687023	167.4	117.0	-69.0
2017-08-17 14:02:37.811950	lat	lng	0.00244140625	1.02001953125	0.00048828125	2.7022900763358777	0.16793893129770993	0.8549618320610687	167.4	117.0	-69.0
2017-08-17 14:02:37.829033	lat	lng	0.005859375	1.017578125	0.03076171875	2.2900763358778624	-0.030534351145038167	0.9618320610687023	167.4	117.0	-69.0
2017-08-17 14:02:37.847361	lat	lng	0.0029296875	1.015380859375	-0.001220703125	2.198473282442748	-0.24427480916030533	1.083969465648855	167.4	117.0	-69.0
2017-08-17 14:02:37.865637	lat	lng	0.007080078125	1.0146484375	-0.006103515625	2.4732824427480917	-0.061068702290076333	0.7480916030534351	167.4	117.0	-69.0
2017-08-17 14:02:37.884548	lat	lng	0.007568359375	1.013916015625	-0.00439453125	2.427480916030534	-0.07633587786259542	0.9923664122137404	167.4	117.0	-69.0
2017-08-17 14:02:37.903782	lat	lng	0.00439453125	1.015869140625	-0.0048828125	2.4580152671755724	-0.16793893129770993	0.8549618320610687	167.4	117.0	-69.0
2017-08-17 14:02:37.923281	lat	lng	0.003662109375	1.014404296875	-0.011474609375	2.6106870229007635	3.8625954198473282	0.9312977099236641	167.4	117.0	-69.0
2017-08-17 14:02:37.943075	lat	lng	0.004638671875	1.016357421875	0.0009765625	2.7480916030534353	0.3053435114503817	0.7022900763358778	167.4	117.0	-69.0
2017-08-17 14:02:37.960767	lat	lng	0.00439453125	1.016357421875	0.001220703125	2.1526717557251906	-0.16793893129770993	0.9312977099236641	167.4	117.0	-69.0
2017-08-17 14:02:37.977025	lat	lng	0.004150390625	1.016357421875	0.00048828125	2.6259541984732824	-0.22900763358778625	1.0534351145038168	167.4	117.0	-69.0
2017-08-17 14:02:37.993210	lat	lng	0.006591796875	1.011962890625	0.0029296875	2.3053435114503817	-0.12213740458015267	0.8702290076335878	167.4	117.0	-69.0
2017-08-17 14:02:38.010734	lat	lng	0.005859375	1.02294921875	0.02978515625	2.2900763358778624	-0.16793893129770993	1.1297709923664123	167.4	117.0	-69.0
2017-08-17 14:02:38.027235	lat	lng	0.002685546875	1.015625	-0.0048828125	2.687022900763359	0.061068702290076333	1.1450381679389312	167.4	117.0	-69.0
2017-08-17 14:02:38.043448	lat	lng	0.005859375	1.01806640625	-0.001953125	2.4122137404580153	0.061068702290076333	0.7633587786259542	167.4	117.0	-69.0
2017-08-17 14:02:38.059662	lat	lng	0.00732421875	1.01953125	0.001953125	2.2748091603053435	0.13740458015267176	0.6717557251908397	167.4	117.0	-69.0
2017-08-17 14:02:38.076048	lat	lng	0.00537109375	1.02001953125	-0.00244140625	2.6564885496183206	-0.0916030534351145	0.9618320610687023	167.4	117.0	-69.0
2017-08-17 14:02:38.092778	lat	lng	0.0068359375	1.016357421875	0.007568359375	2.6412213740458017	-0.061068702290076333	0.7786259541984732	167.4	117.0	-69.0
2017-08-17 14:02:38.109047	lat	lng	0.0029296875	1.018310546875	0.004150390625	2.4427480916030535	-0.030534351145038167	0.8091603053435115	167.4	117.0	-69.0
2017-08-17 14:02:38.125653	lat	lng	0.0029296875	1.016357421875	-0.00048828125	2.519083969465649	-0.04580152671755725	1.0076335877862594	167.4	117.0	-69.0
2017-08-17 14:02:38.141892	lat	lng	0.004638671875	1.016357421875	-0.00146484375	2.4885496183206106	-0.061068702290076333	0.7786259541984732	167.4	117.0	-69.0
2017-08-17 14:02:38.158391	lat	lng	0.00439453125	1.0166015625	0.00146484375	2.4580152671755724	-0.04580152671755725	1.083969465648855	167.4	117.0	-69.0
2017-08-17 14:02:38.174686	lat	lng	0.008544921875	1.017822265625	-0.00048828125	2.4732824427480917	-0.2900763358778626	1.1908396946564885	167.4	117.0	-69.0
2017-08-17 14:02:38.190902	lat	lng	0.0068359375	1.017578125	-0.0009765625	2.381679389312977	0.04580152671755725	0.7022900763358778	167.4	117.0	-69.0
2017-08-17 14:02:38.207141	lat	lng	0.005859375	1.01708984375	0.000244140625	2.549618320610687	0.16793893129770993	1.0381679389312977	167.4	117.0	-69.0
2017-08-17 14:02:38.223429	lat	lng	0.00341796875	1.01806640625	0.006591796875	2.351145038167939	-0.04580152671755725	0.9465648854961832	167.4	117.0	-69.0
2017-08-17 14:02:38.239624	lat	lng	0.008056640625	1.01513671875	0.002685546875	2.2290076335877864	-0.0916030534351145	0.7480916030534351	167.4	117.0	-69.0
2017-08-17 14:02:38.255968	lat	lng	0.0078125	1.01416015625	0.030517578125	2.5801526717557253	-3.9083969465648853	0.732824427480916	167.4	117.0	-69.0
2017-08-17 14:02:38.272172	lat	lng	0.00732421875	1.014892578125	0.00146484375	2.519083969465649	0.061068702290076333	0.9770992366412213	167.4	117.0	-69.0
2017-08-17 14:02:38.288380	lat	lng	0.0068359375	1.014404296875	0.007568359375	2.366412213740458	-0.16793893129770993	0.8396946564885496	167.4	117.0	-69.0
2017-08-17 14:02:38.304632	lat	lng	0.0068359375	1.01611328125	0.005126953125	2.519083969465649	-0.04580152671755725	1.0534351145038168	167.4	117.0	-69.0
2017-08-17 14:02:38.321171	lat	lng	0.00732421875	1.019287109375	-0.000244140625	2.549618320610687	0.21374045801526717	0.9465648854961832	167.4	117.0	-69.0
2017-08-17 14:02:38.337397	lat	lng	0.0068359375	1.019287109375	0.0009765625	2.3053435114503817	-0.061068702290076333	1.0381679389312977	167.4	117.0	-69.0
2017-08-17 14:02:38.353698	lat	lng	0.009033203125	1.020263671875	-0.0029296875	2.351145038167939	0.04580152671755725	0.8854961832061069	167.4	117.0	-69.0
2017-08-17 14:02:38.370089	lat	lng	0.009521484375	1.019287109375	-0.001953125	2.3053435114503817	0.15267175572519084	0.916030534351145	167.4	117.0	-69.0
2017-08-17 14:02:38.386403	lat	lng	0.01025390625	1.019287109375	0.000244140625	2.4580152671755724	-0.015267175572519083	0.8549618320610687	167.4	117.0	-69.0
2017-08-17 14:02:38.402661	lat	lng	0.005126953125	1.019287109375	0.015869140625	2.5343511450381677	-0.13740458015267176	0.9923664122137404	167.4	117.0	-69.0
2017-08-17 14:02:38.418914	lat	lng	0.006103515625	1.017578125	-0.027587890625	2.5343511450381677	0.22900763358778625	0.8854961832061069	167.4	117.0	-69.0
2017-08-17 14:02:38.435244	lat	lng	0.003662109375	1.013916015625	0.0029296875	2.2900763358778624	-0.030534351145038167	1.1145038167938932	167.4	117.0	-69.0
2017-08-17 14:02:38.451469	lat	lng	0.006103515625	1.021240234375	-0.00341796875	2.381679389312977	-0.12213740458015267	0.9465648854961832	167.4	117.0	-69.0
2017-08-17 14:02:38.467712	lat	lng	0.00439453125	1.015869140625	0.00048828125	2.3206106870229006	-0.030534351145038167	0.9465648854961832	167.4	117.0	-69.0
2017-08-17 14:02:38.484216	lat	lng	0.002685546875	1.01708984375	0.004150390625	2.4885496183206106	0.15267175572519084	1.0229007633587786	167.4	117.0	-69.0
2017-08-17 14:02:38.501256	lat	lng	0.002685546875	1.018798828125	0.003173828125	2.5343511450381677	-0.1984732824427481	0.9618320610687023	167.4	117.0	-69.0
2017-08-17 14:02:38.520486	lat	lng	0.0048828125	1.01708984375	0.00732421875	2.366412213740458	0.2595419847328244	0.7175572519083969	167.4	117.0	-69.0
2017-08-17 14:02:38.541968	lat	lng	0.0048828125	1.017578125	0.00048828125	2.427480916030534	-0.07633587786259542	0.9465648854961832	167.4	117.0	-69.0
2017-08-17 14:02:38.562731	lat	lng	0.00341796875	1.0205078125	-0.002685546875	2.519083969465649	-0.07633587786259542	0.9312977099236641	167.4	117.0	-69.0
2017-08-17 14:02:38.593952	lat	lng	0.004638671875	1.01806640625	-0.000244140625	2.3053435114503817	0.0916030534351145	1.0229007633587786	167.4	117.0	-69.0
2017-08-17 14:02:38.619099	lat	lng	0.00537109375	1.02197265625	0.00048828125	2.4580152671755724	0.15267175572519084	0.8854961832061069	167.4	117.0	-69.0
2017-08-17 14:02:38.647164	lat	lng	0.001953125	1.01708984375	0.001953125	2.4427480916030535	-0.0916030534351145	1.1145038167938932	167.4	117.0	-69.0
2017-08-17 14:02:38.676895	lat	lng	0.003662109375	1.0185546875	-0.00830078125	2.763358778625954	0.0	1.0076335877862594	167.4	117.0	-69.0
2017-08-17 14:02:38.702646	lat	lng	0.00634765625	1.020751953125	0.000732421875	2.763358778625954	-0.13740458015267176	0.9312977099236641	167.4	117.0	-69.0
2017-08-17 14:02:38.720629	lat	lng	0.007080078125	1.020263671875	0.00048828125	2.549618320610687	0.15267175572519084	1.0534351145038168	167.4	117.0	-69.0
2017-08-17 14:02:38.737981	lat	lng	0.007080078125	1.01806640625	0.00146484375	2.366412213740458	0.16793893129770993	0.916030534351145	167.4	117.0	-69.0
2017-08-17 14:02:38.755334	lat	lng	0.005126953125	1.013916015625	-0.000244140625	2.687022900763359	-0.07633587786259542	0.916030534351145	167.4	117.0	-69.0
2017-08-17 14:02:38.772717	lat	lng	0.00927734375	1.017822265625	-0.00439453125	2.351145038167939	-0.12213740458015267	1.099236641221374	167.4	117.0	-69.0
2017-08-17 14:02:38.789598	lat	lng	0.00634765625	1.021240234375	0.000244140625	2.595419847328244	-0.15267175572519084	0.9618320610687023	167.4	117.0	-69.0
2017-08-17 14:02:38.807126	lat	lng	0.003662109375	1.01904296875	0.00634765625	2.198473282442748	0.183206106870229	0.9618320610687023	167.4	117.0	-69.0
2017-08-17 14:02:38.826888	lat	lng	0.00732421875	1.017333984375	-0.001220703125	2.183206106870229	-0.1984732824427481	1.0534351145038168	167.4	117.0	-69.0
2017-08-17 14:02:38.845537	lat	lng	0.005615234375	1.015380859375	-0.0048828125	2.4885496183206106	0.3969465648854962	0.7633587786259542	167.4	117.0	-69.0
2017-08-17 14:02:38.863305	lat	lng	0.005615234375	1.01611328125	-0.000732421875	2.763358778625954	-0.22900763358778625	0.916030534351145	167.4	117.0	-69.0
2017-08-17 14:02:38.881552	lat	lng	0.007080078125	1.013671875	-0.001953125	2.4732824427480917	-0.061068702290076333	0.8549618320610687	167.4	117.0	-69.0
2017-08-17 14:02:38.899313	lat	lng	0.00341796875	1.013916015625	0.00048828125	2.2290076335877864	0.061068702290076333	0.9618320610687023	167.4	117.0	-69.0
2017-08-17 14:02:38.918028	lat	lng	0.00537109375	1.018310546875	-0.007080078125	2.732824427480916	0.030534351145038167	0.9618320610687023	167.4	117.0	-69.0
2017-08-17 14:02:38.936828	lat	lng	0.005126953125	1.01904296875	0.006103515625	2.6259541984732824	-0.10687022900763359	0.9007633587786259	167.4	117.0	-69.0
2017-08-17 14:02:38.954879	lat	lng	0.00537109375	1.015380859375	-0.0009765625	2.4122137404580153	0.04580152671755725	0.9618320610687023	167.4	117.0	-69.0
2017-08-17 14:02:38.972981	lat	lng	0.0087890625	1.015380859375	0.001708984375	2.33587786259542	0.015267175572519083	0.9770992366412213	167.4	117.0	-69.0
2017-08-17 14:02:38.989368	lat	lng	0.007080078125	1.01904296875	-0.001220703125	2.351145038167939	0.22900763358778625	1.0381679389312977	167.4	117.0	-69.0
2017-08-17 14:02:39.006162	lat	lng	0.00244140625	1.017578125	0.001220703125	2.4427480916030535	0.13740458015267176	0.916030534351145	167.4	117.0	-69.0
2017-08-17 14:02:39.022762	lat	lng	0.007568359375	1.0166015625	0.005126953125	2.5343511450381677	-0.07633587786259542	0.7938931297709924	167.4	117.0	-69.0
2017-08-17 14:02:39.039450	lat	lng	0.005859375	1.016845703125	0.00390625	2.4427480916030535	-0.13740458015267176	0.8549618320610687	167.4	117.0	-69.0
2017-08-17 14:02:39.056894	lat	lng	0.00732421875	1.020263671875	0.003662109375	2.5801526717557253	-0.07633587786259542	1.0229007633587786	167.4	117.0	-69.0
2017-08-17 14:02:39.078132	lat	lng	0.00390625	1.013427734375	0.008544921875	2.5801526717557253	3.8931297709923665	0.8854961832061069	167.4	117.0	-69.0
2017-08-17 14:02:39.097859	lat	lng	0.007080078125	1.01806640625	-0.03125	2.595419847328244	-0.04580152671755725	0.9465648854961832	167.4	117.0	-69.0
2017-08-17 14:02:39.115457	lat	lng	0.004638671875	1.017578125	0.005615234375	2.2290076335877864	0.015267175572519083	0.9312977099236641	167.4	117.0	-69.0
2017-08-17 14:02:39.132427	lat	lng	0.001708984375	1.01611328125	-0.001220703125	2.519083969465649	-0.183206106870229	0.9770992366412213	167.4	117.0	-69.0
2017-08-17 14:02:39.150190	lat	lng	0.006103515625	1.015625	0.01123046875	2.4885496183206106	-0.1984732824427481	1.0687022900763359	167.4	117.0	-69.0
2017-08-17 14:02:39.167421	lat	lng	0.0078125	1.02099609375	0.0029296875	2.6106870229007635	-0.030534351145038167	0.9312977099236641	167.4	117.0	-69.0
2017-08-17 14:02:39.185375	lat	lng	0.004638671875	1.01513671875	-0.001953125	2.4580152671755724	0.0	1.0076335877862594	167.4	117.0	-69.0
2017-08-17 14:02:39.202453	lat	lng	0.004150390625	1.01220703125	0.001708984375	2.4427480916030535	0.07633587786259542	0.8549618320610687	167.4	117.0	-69.0
2017-08-17 14:02:39.220838	lat	lng	0.003662109375	1.01904296875	0.002197265625	2.427480916030534	0.21374045801526717	0.7938931297709924	167.4	117.0	-69.0
2017-08-17 14:02:39.240546	lat	lng	0.004638671875	1.017822265625	-0.00537109375	2.4732824427480917	-0.030534351145038167	0.9770992366412213	167.4	117.0	-69.0
2017-08-17 14:02:39.257842	lat	lng	0.00341796875	1.017578125	0.00830078125	2.5343511450381677	0.183206106870229	0.916030534351145	167.4	117.0	-69.0
2017-08-17 14:02:39.274328	lat	lng	0.007080078125	1.019775390625	0.000732421875	2.4427480916030535	-0.0916030534351145	1.0076335877862594	167.4	117.0	-69.0
2017-08-17 14:02:39.291528	lat	lng	0.00634765625	1.0166015625	0.009033203125	2.4122137404580153	-0.0916030534351145	0.9007633587786259	167.4	117.0	-69.0
2017-08-17 14:02:39.307945	lat	lng	0.00634765625	1.01611328125	0.008544921875	2.6106870229007635	0.030534351145038167	0.916030534351145	167.4	117.0	-69.0
2017-08-17 14:02:39.332331	lat	lng	0.00341796875	1.020263671875	-0.000244140625	2.3206106870229006	0.030534351145038167	0.7786259541984732	167.4	117.0	-69.0
2017-08-17 14:02:39.350922	lat	lng	0.00537109375	1.018310546875	-0.00146484375	2.5801526717557253	0.061068702290076333	1.0229007633587786	167.4	117.0	-69.0
2017-08-17 14:02:39.367979	lat	lng	0.004150390625	1.0166015625	-0.002685546875	2.4122137404580153	-0.12213740458015267	1.2213740458015268	167.4	117.0	-69.0
2017-08-17 14:02:39.384422	lat	lng	0.005126953125	1.018310546875	-0.000732421875	2.3053435114503817	0.2900763358778626	0.9770992366412213	167.4	117.0	-69.0
2017-08-17 14:02:39.404441	lat	lng	0.005615234375	1.015625	0.003173828125	2.122137404580153	0.24427480916030533	1.2061068702290076	-45.6	158.4	-188.4
2017-08-17 14:02:39.434487	lat	lng	0.006591796875	1.018798828125	-0.009521484375	2.381679389312977	-0.21374045801526717	0.7938931297709924	-45.6	158.4	-188.4
2017-08-17 14:02:39.462206	lat	lng	0.005859375	1.017578125	-0.004150390625	2.366412213740458	0.16793893129770993	0.8702290076335878	-45.6	158.4	-188.4
2017-08-17 14:02:39.487041	lat	lng	0.008544921875	1.01611328125	-0.009521484375	2.4885496183206106	-0.13740458015267176	0.732824427480916	-45.6	158.4	-188.4
2017-08-17 14:02:39.507969	lat	lng	0.008544921875	1.020263671875	-0.00146484375	2.717557251908397	-0.07633587786259542	0.9007633587786259	-45.6	158.4	-188.4
2017-08-17 14:02:39.530028	lat	lng	0.00634765625	1.021484375	-0.006103515625	2.4427480916030535	-3.8931297709923665	0.9618320610687023	-45.6	158.4	-188.4
2017-08-17 14:02:39.558615	lat	lng	0.006591796875	1.019775390625	-0.00634765625	2.381679389312977	0.061068702290076333	0.9770992366412213	-45.6	158.4	-188.4
2017-08-17 14:02:39.584940	lat	lng	0.001708984375	1.0185546875	-0.0009765625	2.5343511450381677	-0.061068702290076333	1.0229007633587786	-45.6	158.4	-188.4
2017-08-17 14:02:39.608801	lat	lng	0.00537109375	1.01708984375	-0.00634765625	2.351145038167939	0.3969465648854962	0.8549618320610687	-45.6	158.4	-188.4
2017-08-17 14:02:39.637492	lat	lng	0.010009765625	1.01806640625	0.001708984375	2.4427480916030535	-0.183206106870229	0.732824427480916	-45.6	158.4	-188.4
2017-08-17 14:02:39.668873	lat	lng	0.003173828125	1.015380859375	-0.001220703125	2.687022900763359	0.07633587786259542	0.6564885496183206	-45.6	158.4	-188.4
2017-08-17 14:02:39.693008	lat	lng	0.003662109375	1.017822265625	-0.03125	2.351145038167939	-3.66412213740458	0.9618320610687023	-45.6	158.4	-188.4
2017-08-17 14:02:39.715405	lat	lng	0.004150390625	1.01708984375	0.005126953125	2.4885496183206106	0.04580152671755725	0.9007633587786259	-45.6	158.4	-188.4
2017-08-17 14:02:39.737433	lat	lng	0.008544921875	1.0146484375	0.003662109375	2.381679389312977	-0.061068702290076333	1.099236641221374	-45.6	158.4	-188.4
2017-08-17 14:02:39.760077	lat	lng	0.005859375	1.015625	-0.00732421875	2.4122137404580153	-0.061068702290076333	0.7022900763358778	-45.6	158.4	-188.4
2017-08-17 14:02:39.781221	lat	lng	0.005859375	1.0166015625	-0.010009765625	2.198473282442748	0.10687022900763359	0.7786259541984732	-45.6	158.4	-188.4
2017-08-17 14:02:39.805946	lat	lng	0.0087890625	1.022216796875	-0.007568359375	2.2900763358778624	0.21374045801526717	0.8702290076335878	-45.6	158.4	-188.4
2017-08-17 14:02:39.826982	lat	lng	0.00830078125	1.0185546875	0.000244140625	2.33587786259542	0.04580152671755725	0.9770992366412213	-45.6	158.4	-188.4
2017-08-17 14:02:39.849689	lat	lng	0.005126953125	1.0185546875	-0.007568359375	2.854961832061069	0.061068702290076333	0.9312977099236641	-45.6	158.4	-188.4
2017-08-17 14:02:39.884059	lat	lng	0.00732421875	1.013671875	-0.010498046875	2.717557251908397	0.0916030534351145	0.9465648854961832	-45.6	158.4	-188.4
2017-08-17 14:02:39.913415	lat	lng	0.005615234375	1.01806640625	0.002685546875	2.4580152671755724	0.015267175572519083	0.9770992366412213	-45.6	158.4	-188.4
2017-08-17 14:02:39.937010	lat	lng	0.0068359375	1.018310546875	0.003173828125	2.3969465648854964	3.801526717557252	0.8244274809160306	-45.6	158.4	-188.4
2017-08-17 14:02:39.968307	lat	lng	0.0029296875	1.019287109375	0.00244140625	2.366412213740458	-0.07633587786259542	1.0076335877862594	-45.6	158.4	-188.4
2017-08-17 14:02:39.991855	lat	lng	0.00048828125	1.018310546875	-0.002685546875	2.4580152671755724	-0.015267175572519083	0.9465648854961832	-45.6	158.4	-188.4
2017-08-17 14:02:40.019314	lat	lng	0.00830078125	1.018798828125	-0.004150390625	2.7022900763358777	0.183206106870229	1.0229007633587786	-45.6	158.4	-188.4
2017-08-17 14:02:40.040696	lat	lng	0.0068359375	1.019287109375	0.000244140625	2.6412213740458017	-0.061068702290076333	0.8549618320610687	-45.6	158.4	-188.4
2017-08-17 14:02:40.061731	lat	lng	0.00634765625	1.01904296875	-0.001708984375	2.519083969465649	-0.183206106870229	0.8702290076335878	-45.6	158.4	-188.4
2017-08-17 14:02:40.086851	lat	lng	0.004150390625	1.0205078125	0.0029296875	2.564885496183206	0.183206106870229	0.6106870229007634	-45.6	158.4	-188.4
2017-08-17 14:02:40.108560	lat	lng	0.00341796875	1.014892578125	-0.0029296875	2.7480916030534353	0.0916030534351145	0.7022900763358778	-45.6	158.4	-188.4
2017-08-17 14:02:40.138941	lat	lng	0.00830078125	1.017333984375	0.005126953125	2.4580152671755724	-3.8473282442748094	0.9923664122137404	-45.6	158.4	-188.4
2017-08-17 14:02:40.162469	lat	lng	0.00830078125	1.017578125	-0.008056640625	2.0916030534351147	0.24427480916030533	0.9770992366412213	-45.6	158.4	-188.4
2017-08-17 14:02:40.187975	lat	lng	0.00732421875	1.019287109375	-0.001953125	2.4427480916030535	0.10687022900763359	0.7175572519083969	-45.6	158.4	-188.4
2017-08-17 14:02:40.212052	lat	lng	0.00830078125	1.0146484375	-0.005126953125	2.3206106870229006	-0.15267175572519084	0.9312977099236641	-45.6	158.4	-188.4
2017-08-17 14:02:40.237099	lat	lng	0.006591796875	1.020751953125	-0.00341796875	2.5343511450381677	-3.9083969465648853	0.9923664122137404	-45.6	158.4	-188.4
2017-08-17 14:02:40.258145	lat	lng	0.00830078125	1.017822265625	0.00732421875	2.50381679389313	-0.015267175572519083	0.7175572519083969	-45.6	158.4	-188.4
2017-08-17 14:02:40.278704	lat	lng	0.004150390625	1.015625	0.005859375	2.519083969465649	0.04580152671755725	0.8854961832061069	-45.6	158.4	-188.4
2017-08-17 14:02:40.299816	lat	lng	0.006103515625	1.01611328125	0.001953125	2.33587786259542	0.07633587786259542	0.8854961832061069	-45.6	158.4	-188.4
2017-08-17 14:02:40.321252	lat	lng	0.005859375	1.0146484375	-0.002685546875	2.50381679389313	-0.1984732824427481	1.0534351145038168	-45.6	158.4	-188.4
2017-08-17 14:02:40.343572	lat	lng	0.0048828125	1.021484375	-0.00634765625	2.366412213740458	0.1984732824427481	0.9007633587786259	-45.6	158.4	-188.4
2017-08-17 14:02:40.368664	lat	lng	0.007568359375	1.01708984375	0.00048828125	2.6564885496183206	0.0916030534351145	0.7480916030534351	-45.6	158.4	-188.4
2017-08-17 14:02:40.399849	lat	lng	0.0048828125	1.016357421875	0.00048828125	2.3206106870229006	0.15267175572519084	0.9312977099236641	-45.6	158.4	-188.4
2017-08-17 14:02:40.425197	lat	lng	0.007080078125	1.016357421875	-0.0009765625	2.381679389312977	-0.0916030534351145	0.9618320610687023	-45.6	158.4	-188.4
2017-08-17 14:02:40.456397	lat	lng	0.006103515625	1.019287109375	-0.010498046875	2.6412213740458017	-0.21374045801526717	0.916030534351145	-45.6	158.4	-188.4
2017-08-17 14:02:40.482867	lat	lng	0.00439453125	1.02001953125	0.00439453125	2.3969465648854964	-0.0916030534351145	0.8244274809160306	-45.6	158.4	-188.4
2017-08-17 14:02:40.508913	lat	lng	0.0068359375	1.012939453125	0.000732421875	2.6106870229007635	0.061068702290076333	0.9923664122137404	-45.6	158.4	-188.4
2017-08-17 14:02:40.532638	lat	lng	0.00634765625	1.01416015625	-0.00048828125	2.5343511450381677	0.10687022900763359	0.7480916030534351	-45.6	158.4	-188.4
2017-08-17 14:02:40.555942	lat	lng	0.00732421875	1.01708984375	-0.005615234375	2.4122137404580153	0.21374045801526717	1.0381679389312977	-45.6	158.4	-188.4
2017-08-17 14:02:40.584418	lat	lng	0.00390625	1.017822265625	-0.003662109375	2.381679389312977	0.0	0.7022900763358778	-45.6	158.4	-188.4
2017-08-17 14:02:40.609044	lat	lng	0.00732421875	1.018798828125	-0.00634765625	2.4732824427480917	-0.030534351145038167	1.0534351145038168	-45.6	158.4	-188.4
2017-08-17 14:02:40.634432	lat	lng	0.00439453125	1.017333984375	0.02880859375	2.3206106870229006	0.16793893129770993	0.7938931297709924	-45.6	158.4	-188.4
2017-08-17 14:02:40.659241	lat	lng	0.0078125	1.018798828125	-0.012939453125	2.3206106870229006	0.07633587786259542	1.0076335877862594	-45.6	158.4	-188.4
2017-08-17 14:02:40.685396	lat	lng	0.0009765625	1.0166015625	-0.0068359375	2.2290076335877864	0.04580152671755725	0.9312977099236641	-45.6	158.4	-188.4
2017-08-17 14:02:40.715761	lat	lng	0.00390625	1.015380859375	-0.007080078125	2.519083969465649	-0.0916030534351145	0.7633587786259542	-45.6	158.4	-188.4
2017-08-17 14:02:40.741910	lat	lng	0.00634765625	1.0146484375	0.0048828125	2.5801526717557253	0.030534351145038167	1.1297709923664123	-45.6	158.4	-188.4
2017-08-17 14:02:40.771125	lat	lng	0.00537109375	1.009765625	-0.004638671875	2.4580152671755724	-0.04580152671755725	0.8244274809160306	-45.6	158.4	-188.4
2017-08-17 14:02:40.791637	lat	lng	0.00537109375	1.0185546875	0.000244140625	2.351145038167939	-0.061068702290076333	1.0076335877862594	-45.6	158.4	-188.4
2017-08-17 14:02:40.812512	lat	lng	0.0068359375	1.0205078125	-0.00634765625	2.549618320610687	-0.16793893129770993	0.9007633587786259	-45.6	158.4	-188.4
2017-08-17 14:02:40.837390	lat	lng	0.009521484375	1.02099609375	-0.00048828125	2.3969465648854964	0.1984732824427481	1.0534351145038168	-45.6	158.4	-188.4
2017-08-17 14:02:40.867780	lat	lng	0.005126953125	1.015869140625	-0.001220703125	2.4427480916030535	0.04580152671755725	0.8244274809160306	-45.6	158.4	-188.4
2017-08-17 14:02:40.891402	lat	lng	0.004150390625	1.014404296875	-0.00390625	2.4427480916030535	-0.04580152671755725	0.8091603053435115	-45.6	158.4	-188.4
2017-08-17 14:02:40.915086	lat	lng	0.00537109375	1.021240234375	0.00244140625	2.4580152671755724	0.24427480916030533	0.9465648854961832	-45.6	158.4	-188.4
2017-08-17 14:02:40.941714	lat	lng	0.005615234375	1.017578125	0.00341796875	2.33587786259542	0.07633587786259542	0.8854961832061069	-45.6	158.4	-188.4
2017-08-17 14:02:40.966643	lat	lng	0.0048828125	1.017333984375	-0.0029296875	2.427480916030534	0.10687022900763359	1.0381679389312977	-45.6	158.4	-188.4
2017-08-17 14:02:40.991378	lat	lng	0.0048828125	1.019775390625	-0.003662109375	2.366412213740458	-0.030534351145038167	0.7480916030534351	-45.6	158.4	-188.4
2017-08-17 14:02:41.013736	lat	lng	0.002685546875	1.018798828125	0.004638671875	2.2748091603053435	-0.15267175572519084	1.0229007633587786	-45.6	158.4	-188.4
2017-08-17 14:02:41.034975	lat	lng	0.004638671875	1.013916015625	0.001953125	2.2595419847328246	-0.04580152671755725	1.083969465648855	-45.6	158.4	-188.4
2017-08-17 14:02:41.056297	lat	lng	0.00341796875	1.01904296875	0.0029296875	2.1526717557251906	-0.04580152671755725	0.8244274809160306	-45.6	158.4	-188.4
2017-08-17 14:02:41.076987	lat	lng	0.005859375	1.017822265625	0.003662109375	2.564885496183206	0.183206106870229	1.083969465648855	-45.6	158.4	-188.4
2017-08-17 14:02:41.101051	lat	lng	0.00439453125	1.018310546875	0.0	2.1526717557251906	0.183206106870229	0.8091603053435115	-45.6	158.4	-188.4
2017-08-17 14:02:41.121864	lat	lng	0.006591796875	1.018310546875	-0.0048828125	2.2290076335877864	0.030534351145038167	1.0381679389312977	-45.6	158.4	-188.4
2017-08-17 14:02:41.142571	lat	lng	0.00927734375	1.015869140625	-0.00048828125	2.381679389312977	-0.10687022900763359	0.7786259541984732	-45.6	158.4	-188.4
2017-08-17 14:02:41.163567	lat	lng	0.00439453125	1.015380859375	-0.00341796875	2.2748091603053435	-3.9083969465648853	0.916030534351145	-45.6	158.4	-188.4
2017-08-17 14:02:41.184451	lat	lng	0.004638671875	1.02197265625	0.00146484375	2.4885496183206106	-0.0916030534351145	0.9465648854961832	-45.6	158.4	-188.4
2017-08-17 14:02:41.206623	lat	lng	0.00732421875	1.012451171875	0.00146484375	2.732824427480916	-0.21374045801526717	0.9618320610687023	-45.6	158.4	-188.4
2017-08-17 14:02:41.227979	lat	lng	0.006591796875	1.017333984375	0.0	2.4732824427480917	0.0916030534351145	0.9770992366412213	-45.6	158.4	-188.4
2017-08-17 14:02:41.249126	lat	lng	0.007080078125	1.018310546875	-0.00634765625	2.6106870229007635	-0.030534351145038167	1.0076335877862594	-45.6	158.4	-188.4
2017-08-17 14:02:41.276107	lat	lng	0.009033203125	1.021728515625	0.00146484375	2.381679389312977	0.04580152671755725	0.7938931297709924	-45.6	158.4	-188.4
2017-08-17 14:02:41.298523	lat	lng	0.00341796875	1.01708984375	0.029296875	2.427480916030534	-0.13740458015267176	0.7938931297709924	-45.6	158.4	-188.4
2017-08-17 14:02:41.324598	lat	lng	0.00537109375	1.01611328125	-0.008056640625	2.4427480916030535	0.16793893129770993	0.7633587786259542	-45.6	158.4	-188.4
2017-08-17 14:02:41.346178	lat	lng	0.003662109375	1.01708984375	0.002685546875	2.50381679389313	0.10687022900763359	0.8396946564885496	-45.6	158.4	-188.4
2017-08-17 14:02:41.369425	lat	lng	0.00439453125	1.013671875	0.0029296875	2.427480916030534	0.1984732824427481	0.7022900763358778	-45.6	158.4	-188.4
2017-08-17 14:02:41.392933	lat	lng	0.00732421875	1.01806640625	0.0	2.549618320610687	0.07633587786259542	1.1755725190839694	-45.6	158.4	-188.4
2017-08-17 14:02:41.415312	lat	lng	0.006103515625	1.0166015625	0.00439453125	2.564885496183206	3.8931297709923665	0.7786259541984732	-45.6	158.4	-188.4
2017-08-17 14:02:41.438194	lat	lng	0.00390625	1.01513671875	-0.00048828125	2.381679389312977	-0.015267175572519083	1.1297709923664123	-45.6	158.4	-188.4
2017-08-17 14:02:41.460238	lat	lng	0.00537109375	1.017578125	-0.00439453125	2.5343511450381677	-0.030534351145038167	0.8854961832061069	-45.6	158.4	-188.4
2017-08-17 14:02:41.483883	lat	lng	0.00244140625	1.02099609375	-0.001220703125	2.183206106870229	0.13740458015267176	1.083969465648855	-45.6	158.4	-188.4
2017-08-17 14:02:41.505498	lat	lng	0.006591796875	1.0166015625	-0.0009765625	2.427480916030534	-0.030534351145038167	0.6717557251908397	-45.6	158.4	-188.4
2017-08-17 14:02:41.532052	lat	lng	0.010009765625	1.020751953125	-0.004150390625	2.33587786259542	0.10687022900763359	0.9770992366412213	-45.6	158.4	-188.4
2017-08-17 14:02:41.565143	lat	lng	0.005859375	1.018310546875	0.0009765625	2.4580152671755724	0.061068702290076333	1.2366412213740459	-45.6	158.4	-188.4
2017-08-17 14:02:41.591800	lat	lng	0.00439453125	1.01708984375	-0.002685546875	2.4122137404580153	0.2595419847328244	0.9312977099236641	-45.6	158.4	-188.4
2017-08-17 14:02:41.617886	lat	lng	0.007080078125	1.0166015625	0.00390625	2.427480916030534	-0.12213740458015267	0.9007633587786259	-45.6	158.4	-188.4
2017-08-17 14:02:41.641887	lat	lng	0.005126953125	1.014892578125	-0.001953125	2.564885496183206	0.015267175572519083	0.7633587786259542	-45.6	158.4	-188.4
2017-08-17 14:02:41.664071	lat	lng	0.009521484375	1.01318359375	-0.00244140625	2.4732824427480917	0.07633587786259542	1.2061068702290076	-45.6	158.4	-188.4
2017-08-17 14:02:41.689151	lat	lng	0.00439453125	1.018310546875	-0.001708984375	2.519083969465649	-3.9083969465648853	0.8549618320610687	-45.6	158.4	-188.4
2017-08-17 14:02:41.710941	lat	lng	0.00634765625	1.02099609375	-0.001953125	2.381679389312977	-0.061068702290076333	0.8702290076335878	-45.6	158.4	-188.4
2017-08-17 14:02:41.731530	lat	lng	0.00390625	1.01806640625	-0.003173828125	2.3969465648854964	0.15267175572519084	0.7786259541984732	-45.6	158.4	-188.4
2017-08-17 14:02:41.764355	lat	lng	0.00634765625	1.02001953125	-0.000244140625	2.4885496183206106	-0.030534351145038167	0.7938931297709924	-45.6	158.4	-188.4
2017-08-17 14:02:41.787865	lat	lng	0.00537109375	1.01513671875	-0.00439453125	2.4122137404580153	0.015267175572519083	0.7633587786259542	-45.6	158.4	-188.4
2017-08-17 14:02:41.810822	lat	lng	0.005615234375	1.017822265625	-0.0078125	2.50381679389313	-0.04580152671755725	0.8854961832061069	-45.6	158.4	-188.4
2017-08-17 14:02:41.833224	lat	lng	0.004638671875	1.02001953125	0.0	2.3969465648854964	-0.183206106870229	0.8854961832061069	-45.6	158.4	-188.4
2017-08-17 14:02:41.857229	lat	lng	0.004150390625	1.015380859375	-0.001708984375	2.519083969465649	-3.9083969465648853	1.0229007633587786	-45.6	158.4	-188.4
2017-08-17 14:02:41.881721	lat	lng	0.0087890625	1.0205078125	-0.003662109375	2.519083969465649	-0.12213740458015267	0.732824427480916	-45.6	158.4	-188.4
2017-08-17 14:02:41.906561	lat	lng	0.005615234375	1.0146484375	-0.00439453125	2.4427480916030535	0.12213740458015267	0.7480916030534351	-45.6	158.4	-188.4
2017-08-17 14:02:41.930881	lat	lng	0.004638671875	1.0205078125	-0.003662109375	2.33587786259542	0.13740458015267176	0.8244274809160306	-45.6	158.4	-188.4
2017-08-17 14:02:41.955955	lat	lng	0.00634765625	1.013916015625	-0.00439453125	2.4122137404580153	0.16793893129770993	1.0229007633587786	-45.6	158.4	-188.4
2017-08-17 14:02:41.981325	lat	lng	0.004638671875	1.0166015625	-0.009765625	2.4427480916030535	0.0	0.916030534351145	-45.6	158.4	-188.4
2017-08-17 14:02:42.019865	lat	lng	0.0078125	1.017333984375	-0.0009765625	2.3206106870229006	0.030534351145038167	0.8091603053435115	-45.6	158.4	-188.4
2017-08-17 14:02:42.064568	lat	lng	0.005859375	1.02197265625	-0.002197265625	2.2748091603053435	-3.9083969465648853	0.7633587786259542	-45.6	158.4	-188.4
2017-08-17 14:02:42.087347	lat	lng	0.004150390625	1.015869140625	0.00439453125	2.351145038167939	0.16793893129770993	0.9465648854961832	-45.6	158.4	-188.4
2017-08-17 14:02:42.110244	lat	lng	0.00537109375	1.017822265625	0.0029296875	2.2748091603053435	-0.061068702290076333	0.7480916030534351	-45.6	158.4	-188.4
2017-08-17 14:02:42.133618	lat	lng	0.0009765625	1.01318359375	-0.00830078125	2.564885496183206	0.015267175572519083	0.9923664122137404	-45.6	158.4	-188.4
2017-08-17 14:02:42.159764	lat	lng	0.006591796875	1.017578125	0.0009765625	2.351145038167939	0.16793893129770993	1.0076335877862594	-45.6	158.4	-188.4
2017-08-17 14:02:42.180331	lat	lng	0.00439453125	1.01904296875	-0.001220703125	2.351145038167939	-0.0916030534351145	0.9312977099236641	-45.6	158.4	-188.4
2017-08-17 14:02:42.203138	lat	lng	0.005126953125	1.020751953125	0.0029296875	2.4732824427480917	0.10687022900763359	0.9465648854961832	-45.6	158.4	-188.4
2017-08-17 14:02:42.224032	lat	lng	0.004150390625	1.01953125	0.000244140625	2.366412213740458	0.015267175572519083	0.8854961832061069	-45.6	158.4	-188.4
2017-08-17 14:02:42.245731	lat	lng	0.0029296875	1.02099609375	-0.000732421875	2.6564885496183206	3.8931297709923665	1.2366412213740459	-45.6	158.4	-188.4
2017-08-17 14:02:42.268475	lat	lng	0.00244140625	1.0205078125	-0.0087890625	2.4732824427480917	0.030534351145038167	0.9312977099236641	-45.6	158.4	-188.4
2017-08-17 14:02:42.286886	lat	lng	0.007568359375	1.01904296875	-0.001708984375	2.519083969465649	0.21374045801526717	1.0076335877862594	-45.6	158.4	-188.4
2017-08-17 14:02:42.305109	lat	lng	0.005126953125	1.018798828125	-0.000732421875	2.6106870229007635	0.07633587786259542	0.8091603053435115	-45.6	158.4	-188.4
2017-08-17 14:02:42.324784	lat	lng	0.00537109375	1.018798828125	0.002197265625	2.4122137404580153	0.1984732824427481	0.9618320610687023	-45.6	158.4	-188.4
2017-08-17 14:02:42.344754	lat	lng	0.005615234375	1.015380859375	0.001220703125	2.5343511450381677	-0.24427480916030533	0.8702290076335878	-45.6	158.4	-188.4
2017-08-17 14:02:42.365196	lat	lng	0.003662109375	1.014892578125	-0.006591796875	2.366412213740458	-0.22900763358778625	1.1297709923664123	-45.6	158.4	-188.4
2017-08-17 14:02:42.387193	lat	lng	0.0	1.01416015625	-0.001220703125	2.7480916030534353	-0.07633587786259542	0.9465648854961832	-45.6	158.4	-188.4
2017-08-17 14:02:42.405524	lat	lng	0.006591796875	1.01708984375	-0.005126953125	2.4732824427480917	0.3053435114503817	0.9465648854961832	-45.6	158.4	-188.4
2017-08-17 14:02:42.422364	lat	lng	0.011962890625	1.018310546875	0.0	2.549618320610687	-0.10687022900763359	0.8702290076335878	-45.6	158.4	-188.4
2017-08-17 14:02:42.440976	lat	lng	0.005859375	1.022216796875	-0.00244140625	2.4885496183206106	0.061068702290076333	0.9465648854961832	-45.6	158.4	-188.4
2017-08-17 14:02:42.462813	lat	lng	0.008056640625	1.01953125	-0.00732421875	2.519083969465649	0.13740458015267176	0.8244274809160306	-45.6	158.4	-188.4
2017-08-17 14:02:42.484678	lat	lng	0.007568359375	1.01953125	0.00390625	2.4580152671755724	0.07633587786259542	0.8854961832061069	-45.6	158.4	-188.4
2017-08-17 14:02:42.506583	lat	lng	0.004638671875	1.019287109375	-0.0048828125	2.549618320610687	-0.04580152671755725	1.0229007633587786	-45.6	158.4	-188.4
2017-08-17 14:02:42.528509	lat	lng	0.00537109375	1.021484375	-0.001708984375	2.33587786259542	0.12213740458015267	0.8091603053435115	-45.6	158.4	-188.4
2017-08-17 14:02:42.558481	lat	lng	0.00341796875	1.013916015625	-0.007568359375	2.4885496183206106	-0.015267175572519083	1.0229007633587786	-45.6	158.4	-188.4
2017-08-17 14:02:42.579847	lat	lng	0.00634765625	1.020263671875	0.00244140625	2.366412213740458	0.21374045801526717	0.7175572519083969	-45.6	158.4	-188.4
2017-08-17 14:02:42.601827	lat	lng	0.00732421875	1.0146484375	-0.008544921875	2.519083969465649	0.16793893129770993	0.9770992366412213	-45.6	158.4	-188.4
2017-08-17 14:02:42.629389	lat	lng	0.0048828125	1.01953125	0.008056640625	2.381679389312977	0.2595419847328244	0.7633587786259542	-45.6	158.4	-188.4
2017-08-17 14:02:42.651599	lat	lng	0.0068359375	1.02001953125	-0.001220703125	2.6717557251908395	0.0	0.8396946564885496	-45.6	158.4	-188.4
2017-08-17 14:02:42.674972	lat	lng	0.0087890625	1.01416015625	0.000244140625	2.33587786259542	-0.183206106870229	0.7786259541984732	-45.6	158.4	-188.4
2017-08-17 14:02:42.697913	lat	lng	0.006103515625	1.017822265625	-0.005126953125	2.4427480916030535	-0.04580152671755725	0.8854961832061069	-45.6	158.4	-188.4
2017-08-17 14:02:42.719457	lat	lng	0.005859375	1.01904296875	-0.002685546875	2.3053435114503817	-0.030534351145038167	0.9465648854961832	-45.6	158.4	-188.4
2017-08-17 14:02:42.739901	lat	lng	0.003173828125	1.017333984375	-0.00244140625	2.6106870229007635	0.21374045801526717	0.8854961832061069	-45.6	158.4	-188.4
2017-08-17 14:02:42.760826	lat	lng	0.001708984375	1.014404296875	0.0	2.4427480916030535	0.07633587786259542	0.8854961832061069	-45.6	158.4	-188.4
2017-08-17 14:02:42.781418	lat	lng	0.00927734375	1.019775390625	0.0	2.2900763358778624	0.10687022900763359	0.9465648854961832	-45.6	158.4	-188.4
2017-08-17 14:02:42.802069	lat	lng	0.009765625	1.01806640625	0.0	2.366412213740458	0.07633587786259542	0.8854961832061069	-45.6	158.4	-188.4
2017-08-17 14:02:42.822853	lat	lng	0.0068359375	1.015380859375	-0.005615234375	2.33587786259542	-3.9083969465648853	0.8244274809160306	-45.6	158.4	-188.4
2017-08-17 14:02:42.843615	lat	lng	0.0	1.013427734375	-0.005615234375	2.4122137404580153	-0.15267175572519084	0.7938931297709924	-45.6	158.4	-188.4
2017-08-17 14:02:42.864297	lat	lng	0.005615234375	1.0166015625	0.007080078125	2.4732824427480917	-0.015267175572519083	1.0229007633587786	-45.6	158.4	-188.4
2017-08-17 14:02:42.885124	lat	lng	0.0048828125	1.02001953125	0.000732421875	2.2595419847328246	0.2900763358778626	0.8396946564885496	-45.6	158.4	-188.4
2017-08-17 14:02:42.906024	lat	lng	0.006103515625	1.018310546875	0.0009765625	2.5343511450381677	-0.04580152671755725	1.1145038167938932	-45.6	158.4	-188.4
2017-08-17 14:02:42.926759	lat	lng	0.00634765625	1.01708984375	-0.004638671875	2.8396946564885495	-0.061068702290076333	0.8244274809160306	-45.6	158.4	-188.4
2017-08-17 14:02:42.947579	lat	lng	0.0029296875	1.016357421875	0.002685546875	2.549618320610687	-0.030534351145038167	0.8854961832061069	-45.6	158.4	-188.4
2017-08-17 14:02:42.968287	lat	lng	0.005126953125	1.016357421875	0.005615234375	2.3053435114503817	0.0916030534351145	1.099236641221374	-45.6	158.4	-188.4
2017-08-17 14:02:42.989075	lat	lng	0.001953125	1.01904296875	-0.000732421875	2.595419847328244	-0.015267175572519083	0.7633587786259542	-45.6	158.4	-188.4
2017-08-17 14:02:43.011538	lat	lng	0.005126953125	1.01806640625	-0.0029296875	2.427480916030534	-0.030534351145038167	0.8091603053435115	-45.6	158.4	-188.4
2017-08-17 14:02:43.032249	lat	lng	0.006591796875	1.01953125	-0.0009765625	2.2595419847328246	-3.9083969465648853	1.1297709923664123	-45.6	158.4	-188.4
2017-08-17 14:02:43.052917	lat	lng	0.005615234375	1.02099609375	-0.007568359375	2.4580152671755724	-0.183206106870229	0.7633587786259542	-45.6	158.4	-188.4
2017-08-17 14:02:43.073570	lat	lng	0.00439453125	1.0185546875	0.004150390625	2.4427480916030535	-0.04580152671755725	0.7786259541984732	-45.6	158.4	-188.4
2017-08-17 14:02:43.094200	lat	lng	0.00146484375	1.015380859375	0.00146484375	2.4885496183206106	0.061068702290076333	0.7938931297709924	-45.6	158.4	-188.4
2017-08-17 14:02:43.114835	lat	lng	0.004150390625	1.013671875	-0.00439453125	2.6564885496183206	3.8931297709923665	1.083969465648855	-45.6	158.4	-188.4
2017-08-17 14:02:43.135623	lat	lng	0.004638671875	1.017333984375	-0.00341796875	2.8091603053435112	-0.015267175572519083	0.8091603053435115	-45.6	158.4	-188.4
2017-08-17 14:02:43.156394	lat	lng	0.00439453125	1.0166015625	-0.004150390625	2.351145038167939	-0.13740458015267176	1.0229007633587786	-45.6	158.4	-188.4
2017-08-17 14:02:43.177125	lat	lng	0.004638671875	1.015869140625	-0.0029296875	2.3969465648854964	0.0	0.8702290076335878	-45.6	158.4	-188.4
2017-08-17 14:02:43.197889	lat	lng	-0.001708984375	1.01806640625	0.00439453125	2.595419847328244	0.015267175572519083	0.9312977099236641	-45.6	158.4	-188.4
2017-08-17 14:02:43.218619	lat	lng	0.0048828125	1.018798828125	0.006103515625	2.3969465648854964	-0.030534351145038167	1.1908396946564885	-45.6	158.4	-188.4
2017-08-17 14:02:43.239752	lat	lng	0.00830078125	1.0166015625	-0.003173828125	2.366412213740458	-0.030534351145038167	0.9618320610687023	-45.6	158.4	-188.4
2017-08-17 14:02:43.260495	lat	lng	0.005615234375	1.015869140625	-0.005126953125	2.549618320610687	0.030534351145038167	1.0076335877862594	-45.6	158.4	-188.4
2017-08-17 14:02:43.281381	lat	lng	0.006103515625	1.016357421875	0.00048828125	2.2595419847328246	-0.04580152671755725	0.9007633587786259	-45.6	158.4	-188.4
2017-08-17 14:02:43.302034	lat	lng	0.00927734375	1.01904296875	-0.0048828125	2.5343511450381677	0.015267175572519083	1.0687022900763359	-45.6	158.4	-188.4
2017-08-17 14:02:43.322734	lat	lng	0.002685546875	1.018310546875	0.001953125	2.4122137404580153	-0.10687022900763359	1.0534351145038168	-45.6	158.4	-188.4
2017-08-17 14:02:43.343458	lat	lng	0.007568359375	1.013916015625	-0.000244140625	2.8244274809160306	0.015267175572519083	0.7022900763358778	-45.6	158.4	-188.4
2017-08-17 14:02:43.364129	lat	lng	0.00341796875	1.0166015625	0.00244140625	2.5801526717557253	-0.061068702290076333	0.732824427480916	-45.6	158.4	-188.4
2017-08-17 14:02:43.384894	lat	lng	0.00732421875	1.018798828125	-0.00244140625	2.595419847328244	-0.12213740458015267	0.8091603053435115	-45.6	158.4	-188.4
2017-08-17 14:02:43.405825	lat	lng	0.001953125	1.01806640625	0.000244140625	2.366412213740458	0.13740458015267176	0.9770992366412213	-45.6	158.4	-188.4
2017-08-17 14:02:43.436621	lat	lng	0.005126953125	1.01416015625	-0.003662109375	2.50381679389313	-3.8931297709923665	0.9770992366412213	-45.6	158.4	-188.4
2017-08-17 14:02:43.457704	lat	lng	0.005615234375	1.019775390625	-0.003662109375	2.564885496183206	0.015267175572519083	1.0381679389312977	-45.6	158.4	-188.4
2017-08-17 14:02:43.478598	lat	lng	0.0107421875	1.02001953125	-0.00341796875	2.3969465648854964	-0.10687022900763359	0.7175572519083969	-45.6	158.4	-188.4
2017-08-17 14:02:43.499608	lat	lng	0.0087890625	1.017822265625	-0.007080078125	2.198473282442748	0.015267175572519083	0.6412213740458015	-45.6	158.4	-188.4
2017-08-17 14:02:43.530734	lat	lng	0.004638671875	1.020263671875	0.00634765625	2.427480916030534	-3.9083969465648853	1.0381679389312977	-45.6	158.4	-188.4
2017-08-17 14:02:43.551281	lat	lng	0.0048828125	1.01220703125	-0.002197265625	2.4732824427480917	0.0916030534351145	0.9007633587786259	-45.6	158.4	-188.4
2017-08-17 14:02:43.575090	lat	lng	0.007080078125	1.01416015625	-0.00341796875	2.2595419847328246	-0.015267175572519083	0.732824427480916	-45.6	158.4	-188.4
2017-08-17 14:02:43.596504	lat	lng	0.005615234375	1.01904296875	-0.00341796875	2.50381679389313	-0.24427480916030533	0.7175572519083969	-45.6	158.4	-188.4
2017-08-17 14:02:43.617967	lat	lng	0.002197265625	1.020751953125	0.006591796875	2.2748091603053435	-0.183206106870229	0.9465648854961832	-45.6	158.4	-188.4
2017-08-17 14:02:43.638992	lat	lng	0.0068359375	1.01416015625	0.001220703125	2.7480916030534353	0.33587786259541985	0.9923664122137404	-45.6	158.4	-188.4
2017-08-17 14:02:43.660225	lat	lng	0.006591796875	1.015625	0.004638671875	2.564885496183206	3.877862595419847	0.7786259541984732	-45.6	158.4	-188.4
2017-08-17 14:02:43.682548	lat	lng	0.003662109375	1.01708984375	-0.00634765625	2.381679389312977	0.061068702290076333	0.7938931297709924	-45.6	158.4	-188.4
2017-08-17 14:02:43.703951	lat	lng	0.003173828125	1.020263671875	-0.0048828125	2.4122137404580153	-0.183206106870229	1.0381679389312977	-45.6	158.4	-188.4
2017-08-17 14:02:43.726679	lat	lng	0.005859375	1.016357421875	0.002685546875	2.6259541984732824	-0.10687022900763359	1.2366412213740459	-45.6	158.4	-188.4
2017-08-17 14:02:43.748183	lat	lng	0.00439453125	1.012939453125	-0.003662109375	2.564885496183206	0.015267175572519083	1.0229007633587786	-45.6	158.4	-188.4
2017-08-17 14:02:43.781074	lat	lng	0.00634765625	1.014892578125	-0.00341796875	2.16793893129771	0.13740458015267176	0.9312977099236641	-45.6	158.4	-188.4
2017-08-17 14:02:43.803841	lat	lng	0.00927734375	1.0185546875	-0.00146484375	2.50381679389313	-0.030534351145038167	0.9618320610687023	-45.6	158.4	-188.4
2017-08-17 14:02:43.832405	lat	lng	0.0029296875	1.015625	-0.001708984375	2.4885496183206106	-0.030534351145038167	0.9465648854961832	-45.6	158.4	-188.4
2017-08-17 14:02:43.854292	lat	lng	0.004150390625	1.02001953125	0.0048828125	2.4122137404580153	-0.07633587786259542	0.9923664122137404	-45.6	158.4	-188.4
2017-08-17 14:02:43.877461	lat	lng	0.007080078125	1.019775390625	0.0009765625	2.427480916030534	0.04580152671755725	0.7175572519083969	-45.6	158.4	-188.4
2017-08-17 14:02:43.898608	lat	lng	0.00927734375	1.03466796875	-0.00439453125	3.053435114503817	-0.3053435114503817	1.0076335877862594	-45.6	158.4	-188.4
2017-08-17 14:02:43.925909	lat	lng	0.00537109375	1.018798828125	-0.005859375	2.4580152671755724	-0.16793893129770993	0.7786259541984732	-45.6	158.4	-188.4
2017-08-17 14:02:43.947468	lat	lng	0.002685546875	1.013671875	-0.000244140625	2.8244274809160306	-0.32061068702290074	1.1755725190839694	-45.6	158.4	-188.4
2017-08-17 14:02:43.969184	lat	lng	0.006103515625	1.016845703125	-0.002197265625	2.595419847328244	0.10687022900763359	0.6870229007633588	-45.6	158.4	-188.4
2017-08-17 14:02:43.992109	lat	lng	0.005859375	1.011962890625	-0.001708984375	2.7022900763358777	-0.1984732824427481	0.7938931297709924	-45.6	158.4	-188.4
2017-08-17 14:02:44.021847	lat	lng	0.009033203125	1.017822265625	-0.00537109375	2.3206106870229006	-0.061068702290076333	0.6870229007633588	-45.6	158.4	-188.4
2017-08-17 14:02:44.043719	lat	lng	0.00390625	1.016357421875	0.001953125	2.595419847328244	-0.015267175572519083	0.9465648854961832	-45.6	158.4	-188.4
2017-08-17 14:02:44.066200	lat	lng	0.005126953125	1.018798828125	-0.001708984375	2.6412213740458017	0.0916030534351145	1.1145038167938932	-45.6	158.4	-188.4
2017-08-17 14:02:44.088581	lat	lng	0.00537109375	1.020751953125	0.001220703125	2.2900763358778624	-0.04580152671755725	0.8549618320610687	-45.6	158.4	-188.4
2017-08-17 14:02:44.110616	lat	lng	0.00244140625	1.016845703125	0.00537109375	2.564885496183206	-0.07633587786259542	0.7938931297709924	-45.6	158.4	-188.4
2017-08-17 14:02:44.131673	lat	lng	0.0048828125	1.013427734375	-0.001953125	2.50381679389313	-0.10687022900763359	0.9007633587786259	-45.6	158.4	-188.4
2017-08-17 14:02:44.153011	lat	lng	0.006591796875	1.0224609375	-0.010009765625	2.595419847328244	0.183206106870229	1.0534351145038168	-45.6	158.4	-188.4
2017-08-17 14:02:44.179165	lat	lng	0.005615234375	1.015869140625	-0.000732421875	2.4732824427480917	-0.04580152671755725	0.8854961832061069	-45.6	158.4	-188.4
2017-08-17 14:02:44.208165	lat	lng	0.003173828125	1.019287109375	-0.009521484375	2.183206106870229	-3.9083969465648853	1.1145038167938932	-45.6	158.4	-188.4
2017-08-17 14:02:44.230778	lat	lng	0.006591796875	1.0205078125	0.0	2.6717557251908395	0.21374045801526717	0.9923664122137404	-45.6	158.4	-188.4
2017-08-17 14:02:44.252894	lat	lng	0.010009765625	1.016845703125	0.02880859375	2.3206106870229006	0.13740458015267176	1.0076335877862594	-45.6	158.4	-188.4
2017-08-17 14:02:44.274464	lat	lng	0.006103515625	1.020263671875	0.002197265625	2.3969465648854964	0.183206106870229	0.9923664122137404	-45.6	158.4	-188.4
2017-08-17 14:02:44.296822	lat	lng	0.0078125	1.017578125	0.000244140625	2.351145038167939	-3.83206106870229	0.9465648854961832	-45.6	158.4	-188.4
2017-08-17 14:02:44.318386	lat	lng	0.005859375	1.019287109375	-0.007080078125	2.351145038167939	-0.015267175572519083	0.732824427480916	-45.6	158.4	-188.4
2017-08-17 14:02:44.341551	lat	lng	0.005859375	1.0166015625	-0.010009765625	2.3969465648854964	-0.061068702290076333	1.1450381679389312	-45.6	158.4	-188.4
2017-08-17 14:02:44.363799	lat	lng	0.0048828125	1.01708984375	0.002685546875	2.4885496183206106	0.10687022900763359	0.732824427480916	-45.6	158.4	-188.4
2017-08-17 14:02:44.386513	lat	lng	0.008544921875	1.018310546875	0.000732421875	2.3206106870229006	0.015267175572519083	0.916030534351145	-45.6	158.4	-188.4
2017-08-17 14:02:44.409756	lat	lng	0.00146484375	1.017578125	0.00732421875	2.3969465648854964	-0.04580152671755725	0.6106870229007634	-45.6	158.4	-188.4
2017-08-17 14:02:44.433123	lat	lng	0.003662109375	1.014404296875	0.00048828125	2.687022900763359	-0.061068702290076333	0.9465648854961832	-45.6	158.4	-188.4
2017-08-17 14:02:44.457425	lat	lng	0.009765625	1.019775390625	0.00390625	2.6106870229007635	0.15267175572519084	1.1755725190839694	-45.6	158.4	-188.4
2017-08-17 14:02:44.483878	lat	lng	0.005126953125	1.01416015625	0.029541015625	2.4885496183206106	3.786259541984733	0.6412213740458015	-45.6	158.4	-188.4
2017-08-17 14:02:44.506084	lat	lng	0.005859375	1.019775390625	0.02880859375	2.3053435114503817	-0.0916030534351145	1.1603053435114503	-45.6	158.4	-188.4
2017-08-17 14:02:44.534947	lat	lng	0.00341796875	1.017333984375	0.001953125	2.381679389312977	-0.10687022900763359	0.8854961832061069	-45.6	158.4	-188.4
2017-08-17 14:02:44.556651	lat	lng	0.00537109375	1.0185546875	0.00341796875	2.3969465648854964	0.015267175572519083	1.1145038167938932	-45.6	158.4	-188.4
2017-08-17 14:02:44.578485	lat	lng	0.00244140625	1.02001953125	0.002685546875	2.4580152671755724	0.12213740458015267	0.9923664122137404	-45.6	158.4	-188.4
2017-08-17 14:02:44.599916	lat	lng	0.0048828125	1.0185546875	-0.00927734375	2.5343511450381677	-3.9083969465648853	0.7175572519083969	-45.6	158.4	-188.4
2017-08-17 14:02:44.621832	lat	lng	0.004150390625	1.0166015625	-0.00048828125	2.5343511450381677	-0.1984732824427481	0.6564885496183206	-45.6	158.4	-188.4
2017-08-17 14:02:44.644513	lat	lng	0.002197265625	1.018310546875	-0.002685546875	2.4732824427480917	-0.015267175572519083	1.099236641221374	-45.6	158.4	-188.4
2017-08-17 14:02:44.667392	lat	lng	0.004150390625	1.01953125	0.0009765625	2.6564885496183206	0.015267175572519083	1.0076335877862594	-45.6	158.4	-188.4
2017-08-17 14:02:44.689497	lat	lng	0.0048828125	1.01708984375	-0.003173828125	2.6717557251908395	-0.030534351145038167	0.8396946564885496	-45.6	158.4	-188.4
2017-08-17 14:02:44.710264	lat	lng	0.004150390625	1.020263671875	0.002197265625	2.6412213740458017	-0.15267175572519084	1.1297709923664123	-45.6	158.4	-188.4
2017-08-17 14:02:44.731826	lat	lng	0.007080078125	1.020751953125	0.00048828125	2.4427480916030535	0.13740458015267176	0.9770992366412213	-45.6	158.4	-188.4
2017-08-17 14:02:44.752733	lat	lng	0.004150390625	1.01708984375	0.003173828125	2.366412213740458	0.030534351145038167	0.9465648854961832	-45.6	158.4	-188.4
2017-08-17 14:02:44.773913	lat	lng	0.008056640625	1.014404296875	-0.003173828125	2.4427480916030535	0.0916030534351145	1.1603053435114503	-45.6	158.4	-188.4
2017-08-17 14:02:44.795009	lat	lng	0.00537109375	1.017333984375	-0.006103515625	2.4580152671755724	-0.10687022900763359	0.7938931297709924	-45.6	158.4	-188.4
2017-08-17 14:02:44.816079	lat	lng	0.002685546875	1.0166015625	-0.010498046875	2.2900763358778624	-3.9083969465648853	0.8702290076335878	-45.6	158.4	-188.4
2017-08-17 14:02:44.838315	lat	lng	0.00439453125	1.016845703125	0.029296875	2.3206106870229006	0.030534351145038167	1.083969465648855	-45.6	158.4	-188.4
2017-08-17 14:02:44.861522	lat	lng	0.003662109375	1.01611328125	-0.00732421875	2.4732824427480917	-0.13740458015267176	0.9618320610687023	-45.6	158.4	-188.4
2017-08-17 14:02:44.885094	lat	lng	0.00634765625	1.017333984375	-0.002685546875	2.6717557251908395	-0.12213740458015267	0.8549618320610687	-45.6	158.4	-188.4
2017-08-17 14:02:44.908152	lat	lng	0.003662109375	1.01806640625	-0.008056640625	2.5343511450381677	-0.030534351145038167	1.0076335877862594	-45.6	158.4	-188.4
2017-08-17 14:02:44.931837	lat	lng	0.007568359375	1.020751953125	-0.005859375	2.427480916030534	-0.15267175572519084	0.732824427480916	-45.6	158.4	-188.4
2017-08-17 14:02:44.954621	lat	lng	0.006103515625	1.01025390625	0.001220703125	2.33587786259542	0.16793893129770993	0.7786259541984732	-45.6	158.4	-188.4
2017-08-17 14:02:44.975611	lat	lng	0.005126953125	1.019287109375	-0.00634765625	2.6106870229007635	-0.12213740458015267	1.083969465648855	-45.6	158.4	-188.4
2017-08-17 14:02:45.002537	lat	lng	0.005859375	1.018310546875	-0.003173828125	2.4427480916030535	0.13740458015267176	0.8702290076335878	-45.6	158.4	-188.4
2017-08-17 14:02:45.028921	lat	lng	0.005859375	1.019775390625	-0.000244140625	2.564885496183206	-0.13740458015267176	0.8854961832061069	-45.6	158.4	-188.4
2017-08-17 14:02:45.052132	lat	lng	0.0068359375	1.02001953125	-0.0029296875	2.4122137404580153	-0.16793893129770993	0.9618320610687023	-45.6	158.4	-188.4
2017-08-17 14:02:45.075034	lat	lng	0.006103515625	1.01806640625	-0.004150390625	2.564885496183206	-0.07633587786259542	0.7022900763358778	-45.6	158.4	-188.4
2017-08-17 14:02:45.096598	lat	lng	0.001708984375	1.016845703125	-0.0009765625	2.5343511450381677	-0.04580152671755725	0.8549618320610687	-45.6	158.4	-188.4
2017-08-17 14:02:45.119844	lat	lng	0.003662109375	1.016845703125	-0.008056640625	2.4885496183206106	3.801526717557252	0.7480916030534351	-45.6	158.4	-188.4
2017-08-17 14:02:45.144724	lat	lng	0.00439453125	1.014892578125	0.00244140625	2.519083969465649	-0.3053435114503817	0.8702290076335878	-45.6	158.4	-188.4
2017-08-17 14:02:45.166675	lat	lng	0.0068359375	1.0185546875	0.001708984375	2.3969465648854964	0.07633587786259542	0.9923664122137404	-45.6	158.4	-188.4
2017-08-17 14:02:45.191260	lat	lng	0.005615234375	1.017578125	-0.002685546875	2.213740458015267	-0.12213740458015267	0.8854961832061069	-45.6	158.4	-188.4
2017-08-17 14:02:45.214448	lat	lng	0.00390625	1.016845703125	-0.00634765625	2.549618320610687	0.1984732824427481	0.916030534351145	-45.6	158.4	-188.4
2017-08-17 14:02:45.241444	lat	lng	0.0068359375	1.018310546875	-0.00390625	2.427480916030534	0.030534351145038167	0.9618320610687023	-45.6	158.4	-188.4
2017-08-17 14:02:45.263357	lat	lng	0.009033203125	1.02099609375	0.000732421875	2.6717557251908395	-0.030534351145038167	0.732824427480916	-45.6	158.4	-188.4
2017-08-17 14:02:45.284413	lat	lng	0.007568359375	1.01708984375	0.000244140625	2.381679389312977	-0.22900763358778625	1.099236641221374	-45.6	158.4	-188.4
2017-08-17 14:02:45.305744	lat	lng	0.008056640625	1.016357421875	-0.00244140625	2.4122137404580153	-0.1984732824427481	0.7786259541984732	-45.6	158.4	-188.4
2017-08-17 14:02:45.328332	lat	lng	0.00048828125	1.020751953125	0.001220703125	2.4732824427480917	0.1984732824427481	0.7786259541984732	-45.6	158.4	-188.4
2017-08-17 14:02:45.350758	lat	lng	0.004150390625	1.01513671875	-0.00244140625	2.5343511450381677	-0.10687022900763359	0.9618320610687023	-45.6	158.4	-188.4
2017-08-17 14:02:45.371302	lat	lng	0.004150390625	1.01806640625	-0.011962890625	2.351145038167939	-0.10687022900763359	0.9007633587786259	-45.6	158.4	-188.4
2017-08-17 14:02:45.392712	lat	lng	0.00634765625	1.017578125	-0.001708984375	2.381679389312977	-0.07633587786259542	1.0076335877862594	-45.6	158.4	-188.4
2017-08-17 14:02:45.420583	lat	lng	0.008056640625	1.0185546875	-0.0048828125	2.4427480916030535	0.030534351145038167	0.8702290076335878	-45.6	158.4	-188.4
2017-08-17 14:02:45.441448	lat	lng	0.007080078125	1.0146484375	-0.00146484375	2.6717557251908395	0.07633587786259542	0.9618320610687023	-45.6	158.4	-188.4
2017-08-17 14:02:45.462571	lat	lng	0.009521484375	1.017578125	0.0009765625	2.4122137404580153	-0.030534351145038167	0.6106870229007634	-45.6	158.4	-188.4
2017-08-17 14:02:45.483641	lat	lng	0.003173828125	1.019287109375	-0.0009765625	2.2748091603053435	0.07633587786259542	0.7938931297709924	-45.6	158.4	-188.4
2017-08-17 14:02:45.506544	lat	lng	0.005126953125	1.012939453125	0.00048828125	2.4732824427480917	0.24427480916030533	1.0687022900763359	-45.6	158.4	-188.4
2017-08-17 14:02:45.527777	lat	lng	0.00341796875	1.015380859375	-0.030029296875	2.381679389312977	0.0916030534351145	0.9465648854961832	-45.6	158.4	-188.4
2017-08-17 14:02:45.548979	lat	lng	0.00634765625	1.01904296875	-0.008056640625	2.564885496183206	0.2900763358778626	0.8702290076335878	-45.6	158.4	-188.4
2017-08-17 14:02:45.570104	lat	lng	0.007568359375	1.015625	0.00244140625	2.427480916030534	0.061068702290076333	0.916030534351145	-45.6	158.4	-188.4
2017-08-17 14:02:45.591236	lat	lng	0.00537109375	1.013916015625	-0.0029296875	2.564885496183206	0.0	0.7175572519083969	-45.6	158.4	-188.4
2017-08-17 14:02:45.612223	lat	lng	0.00830078125	1.015625	0.001953125	2.5801526717557253	-0.0916030534351145	0.8549618320610687	-45.6	158.4	-188.4
2017-08-17 14:02:45.633261	lat	lng	0.00830078125	1.016845703125	-0.001708984375	2.7480916030534353	0.07633587786259542	0.8854961832061069	-45.6	158.4	-188.4
2017-08-17 14:02:45.653991	lat	lng	0.0048828125	1.016845703125	-0.00341796875	2.3969465648854964	-0.0916030534351145	0.7786259541984732	-45.6	158.4	-188.4
2017-08-17 14:02:45.678799	lat	lng	0.00537109375	1.013427734375	-0.002685546875	2.5801526717557253	0.22900763358778625	0.9923664122137404	-45.6	158.4	-188.4
2017-08-17 14:02:45.699598	lat	lng	0.0068359375	1.020751953125	0.001220703125	2.50381679389313	0.04580152671755725	0.9312977099236641	-45.6	158.4	-188.4
2017-08-17 14:02:45.721057	lat	lng	0.0068359375	1.012939453125	-0.000732421875	2.2900763358778624	-0.015267175572519083	0.9770992366412213	-45.6	158.4	-188.4
2017-08-17 14:02:45.741902	lat	lng	0.00732421875	1.020263671875	0.002685546875	2.595419847328244	-0.07633587786259542	0.9312977099236641	-45.6	158.4	-188.4
2017-08-17 14:02:45.762761	lat	lng	0.0068359375	1.014404296875	0.001953125	2.4885496183206106	0.015267175572519083	0.9770992366412213	-45.6	158.4	-188.4
2017-08-17 14:02:45.783751	lat	lng	0.005615234375	1.015380859375	-0.02685546875	2.33587786259542	-0.07633587786259542	1.0076335877862594	-45.6	158.4	-188.4
2017-08-17 14:02:45.805875	lat	lng	0.0078125	1.016845703125	0.00537109375	2.4122137404580153	-0.13740458015267176	0.7022900763358778	-45.6	158.4	-188.4
2017-08-17 14:02:45.836652	lat	lng	-0.000244140625	1.015625	-0.005126953125	2.351145038167939	-0.2748091603053435	0.9465648854961832	-45.6	158.4	-188.4
2017-08-17 14:02:45.859071	lat	lng	0.0068359375	1.020263671875	0.002197265625	2.3053435114503817	-0.04580152671755725	0.9312977099236641	-45.6	158.4	-188.4
2017-08-17 14:02:45.882953	lat	lng	0.001220703125	1.012939453125	0.000732421875	2.4427480916030535	-0.015267175572519083	0.7938931297709924	-45.6	158.4	-188.4
2017-08-17 14:02:45.905495	lat	lng	0.004150390625	1.01708984375	0.0048828125	2.4732824427480917	0.15267175572519084	0.8396946564885496	-45.6	158.4	-188.4
2017-08-17 14:02:45.928856	lat	lng	0.001708984375	1.0146484375	-0.000732421875	2.6106870229007635	0.0916030534351145	0.8854961832061069	-45.6	158.4	-188.4
2017-08-17 14:02:45.952623	lat	lng	0.00244140625	1.014892578125	0.002685546875	2.4122137404580153	0.0	0.9618320610687023	-45.6	158.4	-188.4
2017-08-17 14:02:45.975175	lat	lng	0.00439453125	1.0185546875	-0.00244140625	2.4427480916030535	-3.8931297709923665	1.0076335877862594	-45.6	158.4	-188.4
2017-08-17 14:02:45.998619	lat	lng	0.0048828125	1.013916015625	-0.00146484375	2.122137404580153	0.13740458015267176	0.7938931297709924	-45.6	158.4	-188.4
2017-08-17 14:02:46.022788	lat	lng	0.00341796875	1.01953125	-0.00146484375	2.045801526717557	-0.015267175572519083	0.8549618320610687	-45.6	158.4	-188.4
2017-08-17 14:02:46.045983	lat	lng	0.005859375	1.022705078125	-0.005615234375	2.3206106870229006	-3.8931297709923665	0.6259541984732825	-45.6	158.4	-188.4
2017-08-17 14:02:46.069882	lat	lng	0.003662109375	1.01611328125	0.00537109375	2.351145038167939	-0.030534351145038167	0.8549618320610687	-45.6	158.4	-188.4
2017-08-17 14:02:46.087358	lat	lng	0.000244140625	1.019287109375	0.001708984375	2.5343511450381677	0.183206106870229	1.0534351145038168	-45.6	158.4	-188.4
2017-08-17 14:02:46.106258	lat	lng	0.004150390625	1.017578125	0.00439453125	2.4122137404580153	-0.16793893129770993	0.8702290076335878	-45.6	158.4	-188.4
2017-08-17 14:02:46.123616	lat	lng	0.004150390625	1.017822265625	0.000732421875	2.564885496183206	-0.0916030534351145	1.0229007633587786	-45.6	158.4	-188.4
2017-08-17 14:02:46.142108	lat	lng	0.0107421875	1.016845703125	0.001953125	2.5801526717557253	-0.07633587786259542	0.7938931297709924	-45.6	158.4	-188.4
2017-08-17 14:02:46.159642	lat	lng	0.00634765625	1.016845703125	-0.0029296875	2.6564885496183206	-0.030534351145038167	1.0229007633587786	-45.6	158.4	-188.4
2017-08-17 14:02:46.178091	lat	lng	0.003662109375	1.016845703125	-0.003173828125	2.4732824427480917	0.04580152671755725	0.9465648854961832	-45.6	158.4	-188.4
2017-08-17 14:02:46.195978	lat	lng	0.003173828125	1.0126953125	-0.00390625	2.351145038167939	0.366412213740458	0.8244274809160306	-45.6	158.4	-188.4
2017-08-17 14:02:46.214266	lat	lng	0.005615234375	1.015869140625	-0.000244140625	2.2595419847328246	-0.07633587786259542	1.083969465648855	-45.6	158.4	-188.4
2017-08-17 14:02:46.231878	lat	lng	0.008544921875	1.01611328125	-0.003173828125	2.4885496183206106	-0.2748091603053435	1.2213740458015268	-45.6	158.4	-188.4
2017-08-17 14:02:46.249484	lat	lng	0.0078125	1.016357421875	0.00732421875	2.4885496183206106	-0.15267175572519084	0.9007633587786259	-45.6	158.4	-188.4
2017-08-17 14:02:46.267367	lat	lng	0.008544921875	1.01318359375	-0.008544921875	2.6259541984732824	-0.183206106870229	0.8549618320610687	-45.6	158.4	-188.4
2017-08-17 14:02:46.284864	lat	lng	0.005126953125	1.0185546875	0.0146484375	2.2900763358778624	-0.2748091603053435	0.7022900763358778	-45.6	158.4	-188.4
2017-08-17 14:02:46.302689	lat	lng	0.00048828125	1.017333984375	0.0	2.198473282442748	-0.15267175572519084	1.083969465648855	-45.6	158.4	-188.4
2017-08-17 14:02:46.320093	lat	lng	0.0048828125	1.017822265625	-0.00732421875	2.717557251908397	-0.13740458015267176	1.0687022900763359	-45.6	158.4	-188.4
2017-08-17 14:02:46.338450	lat	lng	0.00341796875	1.017578125	0.001220703125	2.687022900763359	-0.44274809160305345	1.0534351145038168	-45.6	158.4	-188.4
2017-08-17 14:02:46.356362	lat	lng	0.003662109375	1.02099609375	0.00634765625	2.50381679389313	0.15267175572519084	0.9007633587786259	-45.6	158.4	-188.4
2017-08-17 14:02:46.374113	lat	lng	0.00439453125	1.017822265625	-0.0048828125	2.2900763358778624	0.04580152671755725	1.1145038167938932	-45.6	158.4	-188.4
2017-08-17 14:02:46.392007	lat	lng	0.006103515625	1.015625	-0.000732421875	2.519083969465649	0.07633587786259542	0.9465648854961832	-45.6	158.4	-188.4
2017-08-17 14:02:46.409646	lat	lng	0.001708984375	1.012451171875	0.0107421875	2.4427480916030535	-0.15267175572519084	0.5801526717557252	-45.6	158.4	-188.4
2017-08-17 14:02:46.427235	lat	lng	0.004638671875	1.01953125	0.001953125	2.2748091603053435	0.015267175572519083	0.9923664122137404	-45.6	158.4	-188.4
2017-08-17 14:02:46.445047	lat	lng	0.00341796875	1.01513671875	0.000732421875	2.732824427480916	-0.1984732824427481	1.282442748091603	-45.6	158.4	-188.4
2017-08-17 14:02:46.462424	lat	lng	0.00244140625	1.017578125	-0.00732421875	2.6259541984732824	0.030534351145038167	1.0381679389312977	-45.6	158.4	-188.4
2017-08-17 14:02:46.486110	lat	lng	0.005859375	1.01708984375	0.001953125	2.4427480916030535	0.061068702290076333	1.0229007633587786	-45.6	158.4	-188.4
2017-08-17 14:02:46.506592	lat	lng	0.00537109375	1.015869140625	0.00048828125	2.427480916030534	-0.015267175572519083	1.0687022900763359	-45.6	158.4	-188.4
2017-08-17 14:02:46.523729	lat	lng	0.0048828125	1.018798828125	-0.004150390625	2.564885496183206	-0.21374045801526717	0.732824427480916	-45.6	158.4	-188.4
2017-08-17 14:02:46.540897	lat	lng	0.00048828125	1.018310546875	-0.00146484375	2.427480916030534	-0.2748091603053435	1.0229007633587786	-45.6	158.4	-188.4
2017-08-17 14:02:46.558423	lat	lng	0.000732421875	1.015625	0.001220703125	2.4885496183206106	-0.2595419847328244	0.8091603053435115	-45.6	158.4	-188.4
2017-08-17 14:02:46.575676	lat	lng	0.00634765625	1.0205078125	-0.031005859375	2.2900763358778624	-0.0916030534351145	0.9618320610687023	-45.6	158.4	-188.4
2017-08-17 14:02:46.593710	lat	lng	0.009765625	1.02001953125	0.0009765625	2.2290076335877864	0.12213740458015267	0.9770992366412213	-45.6	158.4	-188.4
2017-08-17 14:02:46.610507	lat	lng	0.005126953125	1.019287109375	0.007080078125	2.183206106870229	-0.24427480916030533	0.8702290076335878	-45.6	158.4	-188.4
2017-08-17 14:02:46.628227	lat	lng	0.0048828125	1.01953125	0.001953125	2.6259541984732824	-0.24427480916030533	0.9312977099236641	-45.6	158.4	-188.4
2017-08-17 14:02:46.645027	lat	lng	0.007568359375	1.01953125	0.002685546875	2.3969465648854964	-0.07633587786259542	1.0687022900763359	-45.6	158.4	-188.4
2017-08-17 14:02:46.662694	lat	lng	0.003173828125	1.0166015625	-0.002685546875	2.4732824427480917	-0.10687022900763359	0.6106870229007634	-45.6	158.4	-188.4
2017-08-17 14:02:46.685043	lat	lng	0.00146484375	1.014892578125	-0.031005859375	2.595419847328244	-0.12213740458015267	1.0229007633587786	-45.6	158.4	-188.4
2017-08-17 14:02:46.702848	lat	lng	0.003173828125	1.02294921875	-0.007568359375	2.4122137404580153	0.030534351145038167	0.9923664122137404	-45.6	158.4	-188.4
2017-08-17 14:02:46.719860	lat	lng	0.010986328125	1.014892578125	0.000244140625	2.2900763358778624	0.10687022900763359	1.0229007633587786	-45.6	158.4	-188.4
2017-08-17 14:02:46.738688	lat	lng	0.0078125	1.01708984375	-0.00439453125	2.381679389312977	0.030534351145038167	0.9465648854961832	-45.6	158.4	-188.4
2017-08-17 14:02:46.756162	lat	lng	0.0068359375	1.01611328125	-0.00927734375	2.427480916030534	-0.061068702290076333	1.083969465648855	-45.6	158.4	-188.4
2017-08-17 14:02:46.772941	lat	lng	0.00390625	1.01904296875	-0.000244140625	2.900763358778626	-0.21374045801526717	0.4580152671755725	-45.6	158.4	-188.4
2017-08-17 14:02:46.802508	lat	lng	-0.000244140625	1.015625	-0.0126953125	3.099236641221374	-0.183206106870229	1.0534351145038168	-45.6	158.4	-188.4
2017-08-17 14:02:46.824939	lat	lng	0.0029296875	1.016845703125	-0.00390625	2.7938931297709924	-0.015267175572519083	1.0229007633587786	-45.6	158.4	-188.4
2017-08-17 14:02:46.847212	lat	lng	0.00927734375	1.01513671875	-0.03076171875	2.763358778625954	-0.2748091603053435	1.0534351145038168	-45.6	158.4	-188.4
2017-08-17 14:02:46.878112	lat	lng	0.003662109375	1.0185546875	0.00537109375	2.0763358778625953	0.07633587786259542	0.7175572519083969	-45.6	158.4	-188.4
2017-08-17 14:02:46.899651	lat	lng	0.0009765625	1.015625	-0.0009765625	2.183206106870229	0.15267175572519084	0.44274809160305345	-45.6	158.4	-188.4
2017-08-17 14:02:46.922550	lat	lng	-0.002685546875	1.02001953125	-0.0048828125	2.4885496183206106	0.04580152671755725	0.9312977099236641	-45.6	158.4	-188.4
2017-08-17 14:02:46.948594	lat	lng	0.007568359375	1.016845703125	-0.0068359375	2.4885496183206106	3.8625954198473282	1.3129770992366412	-45.6	158.4	-188.4
2017-08-17 14:02:46.970664	lat	lng	0.006103515625	1.021240234375	-0.002685546875	2.2595419847328246	0.12213740458015267	0.8244274809160306	-45.6	158.4	-188.4
2017-08-17 14:02:46.993240	lat	lng	0.00341796875	1.01513671875	0.007080078125	2.7022900763358777	-0.13740458015267176	0.732824427480916	-45.6	158.4	-188.4
2017-08-17 14:02:47.018105	lat	lng	-0.0009765625	1.01513671875	-0.006591796875	2.4427480916030535	0.0916030534351145	0.5954198473282443	-45.6	158.4	-188.4
2017-08-17 14:02:47.056248	lat	lng	0.005615234375	1.01416015625	-0.003173828125	2.213740458015267	0.12213740458015267	1.0381679389312977	-45.6	158.4	-188.4
2017-08-17 14:02:47.089393	lat	lng	0.00732421875	1.015869140625	-0.000244140625	2.7786259541984735	0.015267175572519083	0.6717557251908397	-45.6	158.4	-188.4
2017-08-17 14:02:47.113244	lat	lng	0.005615234375	1.014404296875	0.006591796875	2.549618320610687	0.030534351145038167	0.4580152671755725	-45.6	158.4	-188.4
2017-08-17 14:02:47.137064	lat	lng	0.005126953125	1.013427734375	0.008056640625	2.519083969465649	-0.3053435114503817	1.0076335877862594	-45.6	158.4	-188.4
2017-08-17 14:02:47.162117	lat	lng	0.00537109375	1.017578125	-0.002685546875	2.6259541984732824	-0.04580152671755725	0.9465648854961832	-45.6	158.4	-188.4
2017-08-17 14:02:47.185505	lat	lng	0.0048828125	1.01806640625	0.00048828125	2.4122137404580153	0.13740458015267176	0.7022900763358778	-45.6	158.4	-188.4
2017-08-17 14:02:47.210037	lat	lng	0.00390625	1.01708984375	-0.00048828125	2.198473282442748	0.0916030534351145	0.8854961832061069	-45.6	158.4	-188.4
2017-08-17 14:02:47.234645	lat	lng	0.008544921875	1.016845703125	0.003173828125	2.2900763358778624	-0.15267175572519084	0.9770992366412213	-45.6	158.4	-188.4
2017-08-17 14:02:47.257828	lat	lng	0.001708984375	1.01806640625	0.00048828125	2.33587786259542	0.04580152671755725	0.9312977099236641	-45.6	158.4	-188.4
2017-08-17 14:02:47.279266	lat	lng	0.002197265625	1.020751953125	-0.008056640625	2.595419847328244	-0.12213740458015267	1.1603053435114503	-45.6	158.4	-188.4
2017-08-17 14:02:47.305471	lat	lng	0.000732421875	1.018310546875	-0.01171875	2.2442748091603053	0.0	0.8702290076335878	-45.6	158.4	-188.4
2017-08-17 14:02:47.328387	lat	lng	0.004638671875	1.012939453125	-0.0009765625	3.053435114503817	-0.24427480916030533	0.732824427480916	-45.6	158.4	-188.4
2017-08-17 14:02:47.349967	lat	lng	0.00537109375	1.007080078125	0.011962890625	2.045801526717557	0.2900763358778626	1.0229007633587786	-45.6	158.4	-188.4
2017-08-17 14:02:47.371602	lat	lng	0.00634765625	1.025390625	0.00927734375	1.5419847328244274	0.16793893129770993	0.9312977099236641	-45.6	158.4	-188.4
2017-08-17 14:02:47.394807	lat	lng	0.003662109375	1.017333984375	0.00146484375	2.33587786259542	0.16793893129770993	0.2748091603053435	-45.6	158.4	-188.4
2017-08-17 14:02:47.417527	lat	lng	0.000244140625	1.01025390625	0.001708984375	2.732824427480916	-0.0916030534351145	0.7938931297709924	-45.6	158.4	-188.4
2017-08-17 14:02:47.440102	lat	lng	0.005126953125	1.019287109375	-0.00244140625	2.4580152671755724	0.12213740458015267	1.3282442748091603	-45.6	158.4	-188.4
2017-08-17 14:02:47.462333	lat	lng	0.01318359375	1.02001953125	0.00146484375	2.519083969465649	0.183206106870229	0.7480916030534351	-45.6	158.4	-188.4
2017-08-17 14:02:47.483487	lat	lng	0.008056640625	1.011474609375	-0.0029296875	2.4732824427480917	0.183206106870229	0.7022900763358778	-45.6	158.4	-188.4
2017-08-17 14:02:47.501747	lat	lng	0.001708984375	1.020263671875	0.005615234375	2.4580152671755724	-0.061068702290076333	0.7938931297709924	-45.6	158.4	-188.4
2017-08-17 14:02:47.519384	lat	lng	0.00390625	1.014892578125	-0.000732421875	2.549618320610687	0.04580152671755725	1.0229007633587786	-45.6	158.4	-188.4
2017-08-17 14:02:47.538862	lat	lng	0.0078125	1.02001953125	-0.00634765625	2.4580152671755724	-0.0916030534351145	1.0076335877862594	-45.6	158.4	-188.4
2017-08-17 14:02:47.556537	lat	lng	0.008056640625	1.015625	-0.0048828125	2.381679389312977	3.8931297709923665	0.8854961832061069	-45.6	158.4	-188.4
2017-08-17 14:02:47.575823	lat	lng	0.01025390625	1.017578125	-0.007080078125	2.4732824427480917	-0.0916030534351145	1.0381679389312977	-45.6	158.4	-188.4
2017-08-17 14:02:47.593312	lat	lng	0.00634765625	1.0166015625	-0.00146484375	2.549618320610687	-0.0916030534351145	1.0229007633587786	-45.6	158.4	-188.4
2017-08-17 14:02:47.612146	lat	lng	0.00244140625	1.017578125	0.00341796875	2.2748091603053435	0.2748091603053435	0.732824427480916	-45.6	158.4	-188.4
2017-08-17 14:02:47.629551	lat	lng	0.030517578125	1.017822265625	0.002685546875	2.6564885496183206	-0.030534351145038167	0.7022900763358778	-45.6	158.4	-188.4
2017-08-17 14:02:47.649470	lat	lng	0.004638671875	1.01708984375	-0.000244140625	2.427480916030534	0.015267175572519083	1.0381679389312977	-45.6	158.4	-188.4
2017-08-17 14:02:47.668649	lat	lng	0.006591796875	1.021240234375	-0.005126953125	2.6106870229007635	-0.13740458015267176	1.0076335877862594	-45.6	158.4	-188.4
2017-08-17 14:02:47.686004	lat	lng	0.008056640625	1.0185546875	0.00146484375	2.3206106870229006	-0.1984732824427481	0.8091603053435115	-45.6	158.4	-188.4
2017-08-17 14:02:47.702914	lat	lng	0.00732421875	1.013427734375	-0.003662109375	2.50381679389313	0.13740458015267176	0.732824427480916	-45.6	158.4	-188.4
2017-08-17 14:02:47.720259	lat	lng	0.004150390625	1.016845703125	0.0078125	2.2900763358778624	0.22900763358778625	0.732824427480916	-45.6	158.4	-188.4
2017-08-17 14:02:47.736783	lat	lng	0.00537109375	1.0166015625	0.007080078125	2.50381679389313	0.030534351145038167	0.8091603053435115	-45.6	158.4	-188.4
2017-08-17 14:02:47.753961	lat	lng	0.003173828125	1.01416015625	0.005859375	2.6564885496183206	0.2748091603053435	0.7175572519083969	-45.6	158.4	-188.4
2017-08-17 14:02:47.770341	lat	lng	0.003662109375	1.02001953125	-0.007568359375	2.687022900763359	-3.8931297709923665	0.8244274809160306	-45.6	158.4	-188.4
2017-08-17 14:02:47.787472	lat	lng	0.005859375	1.01953125	-0.02978515625	2.4732824427480917	0.015267175572519083	0.8854961832061069	-45.6	158.4	-188.4
2017-08-17 14:02:47.803878	lat	lng	0.003173828125	1.0185546875	-0.006103515625	2.5343511450381677	0.0916030534351145	0.8702290076335878	-45.6	158.4	-188.4
2017-08-17 14:02:47.820945	lat	lng	0.00634765625	1.017822265625	-0.002685546875	2.549618320610687	-0.030534351145038167	0.8549618320610687	-45.6	158.4	-188.4
2017-08-17 14:02:47.837719	lat	lng	0.00927734375	1.017578125	0.008544921875	2.4122137404580153	-0.030534351145038167	0.8549618320610687	-45.6	158.4	-188.4
2017-08-17 14:02:47.856200	lat	lng	0.00439453125	1.018798828125	-0.001708984375	2.5801526717557253	0.13740458015267176	0.6412213740458015	-45.6	158.4	-188.4
2017-08-17 14:02:47.873646	lat	lng	0.000244140625	1.015380859375	0.005615234375	2.030534351145038	0.12213740458015267	1.0229007633587786	-45.6	158.4	-188.4
2017-08-17 14:02:47.897660	lat	lng	0.001220703125	1.01416015625	-0.004150390625	2.4427480916030535	0.12213740458015267	1.0229007633587786	-45.6	158.4	-188.4
2017-08-17 14:02:47.917652	lat	lng	0.005615234375	1.017822265625	0.005126953125	2.427480916030534	-0.07633587786259542	1.1145038167938932	-45.6	158.4	-188.4
2017-08-17 14:02:47.934426	lat	lng	0.010986328125	1.018798828125	-0.0302734375	2.6106870229007635	0.04580152671755725	1.1908396946564885	-45.6	158.4	-188.4
2017-08-17 14:02:47.951150	lat	lng	0.007568359375	1.015625	0.0	2.2900763358778624	-0.061068702290076333	0.9007633587786259	-45.6	158.4	-188.4
2017-08-17 14:02:47.967864	lat	lng	0.00732421875	1.015869140625	-0.001953125	2.351145038167939	0.15267175572519084	1.0534351145038168	-45.6	158.4	-188.4
2017-08-17 14:02:47.984853	lat	lng	0.003662109375	1.017333984375	-0.000244140625	2.351145038167939	-0.12213740458015267	0.9007633587786259	-45.6	158.4	-188.4
2017-08-17 14:02:48.002279	lat	lng	0.003662109375	1.017333984375	0.00537109375	2.3206106870229006	0.030534351145038167	0.916030534351145	-45.6	158.4	-188.4
2017-08-17 14:02:48.019732	lat	lng	0.00146484375	1.0185546875	0.0009765625	2.3206106870229006	-3.9083969465648853	1.099236641221374	-45.6	158.4	-188.4
2017-08-17 14:02:48.036711	lat	lng	0.00244140625	1.016845703125	0.002685546875	2.3969465648854964	0.1984732824427481	0.916030534351145	-45.6	158.4	-188.4
2017-08-17 14:02:48.053807	lat	lng	0.004150390625	1.02197265625	-0.000244140625	2.3969465648854964	0.061068702290076333	0.9465648854961832	-45.6	158.4	-188.4
2017-08-17 14:02:48.070595	lat	lng	0.00830078125	1.019287109375	-0.003662109375	2.6106870229007635	0.3816793893129771	1.0076335877862594	-45.6	158.4	-188.4
2017-08-17 14:02:48.089541	lat	lng	0.006591796875	1.0146484375	-0.0029296875	2.4885496183206106	-0.21374045801526717	0.8702290076335878	-45.6	158.4	-188.4
2017-08-17 14:02:48.106575	lat	lng	0.007080078125	1.017578125	-0.000732421875	2.2900763358778624	0.015267175572519083	0.8702290076335878	-45.6	158.4	-188.4
2017-08-17 14:02:48.123763	lat	lng	0.002685546875	1.018798828125	0.0029296875	2.351145038167939	0.015267175572519083	0.8854961832061069	-45.6	158.4	-188.4
2017-08-17 14:02:48.140164	lat	lng	0.00439453125	1.017333984375	0.0068359375	2.5343511450381677	-0.16793893129770993	0.8091603053435115	-45.6	158.4	-188.4
2017-08-17 14:02:48.157297	lat	lng	0.00146484375	1.015869140625	0.0	2.3206106870229006	-0.21374045801526717	0.9465648854961832	-45.6	158.4	-188.4
2017-08-17 14:02:48.173747	lat	lng	0.004150390625	1.017822265625	-0.001708984375	2.4122137404580153	-0.04580152671755725	0.9465648854961832	-45.6	158.4	-188.4
2017-08-17 14:02:48.192182	lat	lng	0.0078125	1.01953125	0.0029296875	2.717557251908397	-0.22900763358778625	1.0687022900763359	-45.6	158.4	-188.4
2017-08-17 14:02:48.218995	lat	lng	0.007568359375	1.02197265625	0.00048828125	2.3206106870229006	0.030534351145038167	0.9465648854961832	-45.6	158.4	-188.4
2017-08-17 14:02:48.241000	lat	lng	0.003173828125	1.01611328125	-0.029296875	2.351145038167939	0.030534351145038167	0.8396946564885496	-45.6	158.4	-188.4
2017-08-17 14:02:48.262584	lat	lng	0.005126953125	1.019287109375	-0.00537109375	2.4580152671755724	0.21374045801526717	0.9465648854961832	-45.6	158.4	-188.4
2017-08-17 14:02:48.294333	lat	lng	0.0078125	1.01513671875	-0.012451171875	2.3206106870229006	-0.12213740458015267	0.8702290076335878	-45.6	158.4	-188.4
2017-08-17 14:02:48.316152	lat	lng	0.0107421875	1.02392578125	0.004150390625	2.50381679389313	-0.1984732824427481	0.9312977099236641	-45.6	158.4	-188.4
2017-08-17 14:02:48.337806	lat	lng	0.000732421875	1.01513671875	-0.001220703125	2.4732824427480917	0.0916030534351145	0.8244274809160306	-45.6	158.4	-188.4
2017-08-17 14:02:48.359887	lat	lng	0.005615234375	1.02001953125	0.0	2.4580152671755724	0.04580152671755725	0.9923664122137404	-45.6	158.4	-188.4
2017-08-17 14:02:48.382764	lat	lng	0.00830078125	1.0166015625	-0.010009765625	2.351145038167939	0.13740458015267176	0.916030534351145	-45.6	158.4	-188.4
2017-08-17 14:02:48.405732	lat	lng	0.00634765625	1.022705078125	-0.001953125	2.6106870229007635	-0.07633587786259542	1.0534351145038168	-45.6	158.4	-188.4
2017-08-17 14:02:48.428785	lat	lng	0.003662109375	1.019775390625	0.0	2.4580152671755724	-0.04580152671755725	0.8396946564885496	-45.6	158.4	-188.4
2017-08-17 14:02:48.454331	lat	lng	0.005615234375	1.01953125	-0.006591796875	2.366412213740458	0.13740458015267176	0.7786259541984732	-45.6	158.4	-188.4
2017-08-17 14:02:48.476700	lat	lng	0.004638671875	1.019287109375	-0.006591796875	2.3969465648854964	-0.16793893129770993	0.9312977099236641	-45.6	158.4	-188.4
2017-08-17 14:02:48.498823	lat	lng	0.008056640625	1.01513671875	-0.005859375	2.381679389312977	-0.015267175572519083	0.9007633587786259	-45.6	158.4	-188.4
2017-08-17 14:02:48.530814	lat	lng	0.004150390625	1.017333984375	0.004150390625	2.4427480916030535	-0.13740458015267176	0.916030534351145	-45.6	158.4	-188.4
2017-08-17 14:02:48.562288	lat	lng	0.00732421875	1.015380859375	-0.0009765625	2.045801526717557	0.12213740458015267	1.1755725190839694	-45.6	158.4	-188.4
2017-08-17 14:02:48.584530	lat	lng	0.00439453125	1.019287109375	0.002197265625	2.198473282442748	3.8931297709923665	0.732824427480916	-45.6	158.4	-188.4
2017-08-17 14:02:48.606668	lat	lng	-0.002685546875	1.01953125	0.0048828125	2.6564885496183206	-3.8931297709923665	0.3511450381679389	-45.6	158.4	-188.4
2017-08-17 14:02:48.628974	lat	lng	0.0029296875	1.015625	-0.03125	2.6259541984732824	0.061068702290076333	1.297709923664122	-45.6	158.4	-188.4
2017-08-17 14:02:48.651634	lat	lng	0.007080078125	1.013427734375	-0.011962890625	2.198473282442748	0.0	1.633587786259542	-45.6	158.4	-188.4
2017-08-17 14:02:48.680683	lat	lng	0.013427734375	1.020263671875	0.001708984375	2.2595419847328246	-0.015267175572519083	0.8854961832061069	-45.6	158.4	-188.4
2017-08-17 14:02:48.699178	lat	lng	0.005859375	1.013671875	-0.00048828125	2.0610687022900764	-0.0916030534351145	0.07633587786259542	-45.6	158.4	-188.4
2017-08-17 14:02:48.721550	lat	lng	-0.001953125	1.01611328125	0.003662109375	2.427480916030534	-0.12213740458015267	0.2748091603053435	-45.6	158.4	-188.4
2017-08-17 14:02:48.738613	lat	lng	0.000244140625	1.01611328125	-0.0048828125	2.5343511450381677	0.15267175572519084	1.0534351145038168	-45.6	158.4	-188.4
2017-08-17 14:02:48.757397	lat	lng	0.00244140625	1.015380859375	-0.001953125	2.381679389312977	-0.12213740458015267	1.4961832061068703	-45.6	158.4	-188.4
2017-08-17 14:02:48.781266	lat	lng	0.013427734375	1.02197265625	-0.008544921875	2.213740458015267	0.10687022900763359	1.6946564885496183	-45.6	158.4	-188.4
2017-08-17 14:02:48.799172	lat	lng	0.01220703125	1.023193359375	-0.00048828125	2.16793893129771	0.10687022900763359	0.7938931297709924	-45.6	158.4	-188.4
2017-08-17 14:02:48.817970	lat	lng	0.0107421875	1.017822265625	0.0068359375	2.4427480916030535	0.10687022900763359	0.5190839694656488	-45.6	158.4	-188.4
2017-08-17 14:02:48.834814	lat	lng	0.0009765625	1.015380859375	0.004150390625	2.1374045801526718	-0.13740458015267176	0.366412213740458	-45.6	158.4	-188.4
2017-08-17 14:02:48.852556	lat	lng	-0.002685546875	1.016845703125	0.000732421875	2.4427480916030535	0.3053435114503817	0.32061068702290074	-45.6	158.4	-188.4
2017-08-17 14:02:48.869302	lat	lng	-0.000732421875	1.017578125	0.0009765625	2.3206106870229006	0.0	1.0381679389312977	-45.6	158.4	-188.4
2017-08-17 14:02:48.886599	lat	lng	0.005615234375	1.016357421875	0.00537109375	2.4427480916030535	-0.16793893129770993	1.7557251908396947	-45.6	158.4	-188.4
2017-08-17 14:02:48.903351	lat	lng	0.0126953125	1.0185546875	-0.003173828125	2.549618320610687	0.13740458015267176	1.83206106870229	-45.6	158.4	-188.4
2017-08-17 14:02:48.920522	lat	lng	0.012939453125	1.018798828125	0.001953125	2.4580152671755724	0.04580152671755725	1.251908396946565	-45.6	158.4	-188.4
2017-08-17 14:02:48.937297	lat	lng	0.009521484375	1.0185546875	0.00341796875	2.2900763358778624	0.12213740458015267	0.030534351145038167	-45.6	158.4	-188.4
2017-08-17 14:02:48.954635	lat	lng	-0.00146484375	1.015380859375	0.010498046875	2.2900763358778624	0.22900763358778625	-0.32061068702290074	-45.6	158.4	-188.4
2017-08-17 14:02:48.971006	lat	lng	-0.002197265625	1.015380859375	0.011474609375	2.4427480916030535	-0.015267175572519083	-3.8931297709923665	-45.6	158.4	-188.4
2017-08-17 14:02:48.988559	lat	lng	-0.003662109375	1.013916015625	-0.0068359375	2.6717557251908395	-0.061068702290076333	1.099236641221374	-45.6	158.4	-188.4
2017-08-17 14:02:49.005705	lat	lng	0.004638671875	1.0166015625	-0.00634765625	2.4580152671755724	-0.10687022900763359	2.33587786259542	-45.6	158.4	-188.4
2017-08-17 14:02:49.023126	lat	lng	0.012939453125	1.019287109375	-0.005126953125	2.381679389312977	0.04580152671755725	2.1068702290076335	-45.6	158.4	-188.4
2017-08-17 14:02:49.039673	lat	lng	0.0126953125	1.02197265625	-0.003173828125	2.5801526717557253	-0.10687022900763359	1.251908396946565	-45.6	158.4	-188.4
2017-08-17 14:02:49.057344	lat	lng	0.010986328125	1.017333984375	0.004638671875	2.3206106870229006	0.07633587786259542	0.2595419847328244	-45.6	158.4	-188.4
2017-08-17 14:02:49.075017	lat	lng	0.0009765625	1.01953125	-0.0009765625	2.50381679389313	0.13740458015267176	0.015267175572519083	-45.6	158.4	-188.4
2017-08-17 14:02:49.092890	lat	lng	-0.005859375	1.01708984375	0.0009765625	2.33587786259542	0.1984732824427481	0.4122137404580153	-45.6	158.4	-188.4
2017-08-17 14:02:49.110840	lat	lng	-0.00244140625	1.015869140625	0.003173828125	2.427480916030534	0.16793893129770993	0.9923664122137404	-45.6	158.4	-188.4
2017-08-17 14:02:49.128398	lat	lng	0.003662109375	1.01953125	-0.00341796875	2.4122137404580153	0.030534351145038167	1.8015267175572518	-45.6	158.4	-188.4
2017-08-17 14:02:49.145381	lat	lng	0.0078125	1.01611328125	-0.00341796875	2.4122137404580153	0.04580152671755725	1.9541984732824427	-45.6	158.4	-188.4
2017-08-17 14:02:49.162032	lat	lng	0.01416015625	1.0205078125	0.0068359375	2.381679389312977	0.030534351145038167	1.297709923664122	-45.6	158.4	-188.4
2017-08-17 14:02:49.178732	lat	lng	0.011962890625	1.01904296875	0.005859375	2.33587786259542	-0.13740458015267176	0.33587786259541985	-45.6	158.4	-188.4
2017-08-17 14:02:49.195476	lat	lng	0.003173828125	1.01611328125	0.0078125	2.519083969465649	-0.07633587786259542	0.32061068702290074	-45.6	158.4	-188.4
2017-08-17 14:02:49.212272	lat	lng	-0.00048828125	1.014404296875	0.008544921875	2.4885496183206106	0.13740458015267176	0.3511450381679389	-45.6	158.4	-188.4
2017-08-17 14:02:49.228889	lat	lng	-0.001708984375	1.0146484375	0.00048828125	2.519083969465649	-0.015267175572519083	0.9465648854961832	-45.6	158.4	-188.4
2017-08-17 14:02:49.245922	lat	lng	0.00341796875	1.016357421875	-0.003662109375	2.427480916030534	-0.061068702290076333	1.4351145038167938	-45.6	158.4	-188.4
2017-08-17 14:02:49.263020	lat	lng	0.007080078125	1.017333984375	0.003173828125	2.4427480916030535	0.2900763358778626	1.5267175572519085	-45.6	158.4	-188.4
2017-08-17 14:02:49.280413	lat	lng	0.01025390625	1.02294921875	0.00244140625	2.4885496183206106	-0.061068702290076333	1.1450381679389312	-45.6	158.4	-188.4
2017-08-17 14:02:49.298006	lat	lng	0.010986328125	1.01904296875	-0.00537109375	2.519083969465649	-0.16793893129770993	0.7938931297709924	-45.6	158.4	-188.4
2017-08-17 14:02:49.314943	lat	lng	0.0029296875	1.017578125	-0.005859375	2.2900763358778624	0.1984732824427481	0.6412213740458015	-45.6	158.4	-188.4
2017-08-17 14:02:49.332437	lat	lng	0.001953125	1.015869140625	0.003662109375	2.183206106870229	3.8931297709923665	0.6412213740458015	-45.6	158.4	-188.4
2017-08-17 14:02:49.349543	lat	lng	0.004150390625	1.015380859375	-0.00390625	2.595419847328244	-0.030534351145038167	1.0381679389312977	-45.6	158.4	-188.4
2017-08-17 14:02:49.367395	lat	lng	-0.000244140625	1.015625	0.00244140625	2.7938931297709924	0.0	0.916030534351145	-45.6	158.4	-188.4
2017-08-17 14:02:49.385809	lat	lng	0.00830078125	1.015380859375	-0.001953125	2.427480916030534	-0.061068702290076333	0.8854961832061069	-45.6	158.4	-188.4
2017-08-17 14:02:49.408029	lat	lng	0.008056640625	1.017822265625	-0.00244140625	2.1526717557251906	0.030534351145038167	0.9465648854961832	-45.6	158.4	-188.4
2017-08-17 14:02:49.431476	lat	lng	0.006103515625	1.018310546875	-0.00439453125	2.3969465648854964	-0.12213740458015267	0.8549618320610687	-45.6	158.4	-188.4
2017-08-17 14:02:49.455160	lat	lng	0.005859375	1.019287109375	-0.00244140625	2.4122137404580153	-0.16793893129770993	0.8091603053435115	-45.6	158.4	-188.4
2017-08-17 14:02:49.486077	lat	lng	0.001708984375	1.01513671875	-0.006103515625	2.6717557251908395	-0.21374045801526717	0.9465648854961832	-45.6	158.4	-188.4
2017-08-17 14:02:49.508883	lat	lng	0.005859375	1.018798828125	0.001708984375	2.564885496183206	-0.061068702290076333	1.1908396946564885	-45.6	158.4	-188.4
2017-08-17 14:02:49.531493	lat	lng	0.006591796875	1.01806640625	0.001708984375	2.381679389312977	-0.030534351145038167	1.0229007633587786	-45.6	158.4	-188.4
2017-08-17 14:02:49.552633	lat	lng	0.0068359375	1.016357421875	0.026123046875	1.9694656488549618	0.3053435114503817	0.7786259541984732	-45.6	158.4	-188.4
2017-08-17 14:02:49.574948	lat	lng	0.002197265625	1.019775390625	-0.005126953125	2.4885496183206106	0.061068702290076333	0.5954198473282443	-45.6	158.4	-188.4
2017-08-17 14:02:49.598857	lat	lng	0.002197265625	1.017822265625	-0.006103515625	2.7786259541984735	-0.0916030534351145	0.8396946564885496	-45.6	158.4	-188.4
2017-08-17 14:02:49.621437	lat	lng	0.001953125	1.019775390625	-0.0048828125	2.6106870229007635	-0.07633587786259542	0.9618320610687023	-45.6	158.4	-188.4
2017-08-17 14:02:49.646984	lat	lng	0.01171875	1.01513671875	-0.00634765625	2.687022900763359	0.0	1.0076335877862594	-45.6	158.4	-188.4
2017-08-17 14:02:49.669402	lat	lng	0.003662109375	1.019775390625	0.000244140625	2.6412213740458017	-0.12213740458015267	0.7480916030534351	-45.6	158.4	-188.4
2017-08-17 14:02:49.693201	lat	lng	0.00732421875	1.0166015625	0.002685546875	2.564885496183206	0.10687022900763359	1.1755725190839694	-45.6	158.4	-188.4
2017-08-17 14:02:49.715502	lat	lng	0.00244140625	1.018310546875	-0.006591796875	2.549618320610687	0.061068702290076333	0.8244274809160306	-45.6	158.4	-188.4
2017-08-17 14:02:49.739448	lat	lng	0.007080078125	1.015869140625	-0.00146484375	2.3053435114503817	0.183206106870229	1.099236641221374	-45.6	158.4	-188.4
2017-08-17 14:02:49.761028	lat	lng	0.00244140625	1.02001953125	-0.0302734375	2.366412213740458	-3.9083969465648853	0.9770992366412213	-45.6	158.4	-188.4
2017-08-17 14:02:49.782018	lat	lng	0.003662109375	1.01953125	0.00146484375	2.3206106870229006	0.061068702290076333	0.8091603053435115	-45.6	158.4	-188.4
2017-08-17 14:02:49.801392	lat	lng	0.0048828125	1.01806640625	-0.00048828125	2.4580152671755724	0.061068702290076333	1.0687022900763359	-45.6	158.4	-188.4
2017-08-17 14:02:49.817875	lat	lng	0.0078125	1.016357421875	-0.001953125	2.8091603053435112	0.0	1.1145038167938932	-45.6	158.4	-188.4
2017-08-17 14:02:49.835696	lat	lng	0.008056640625	1.016357421875	-0.001220703125	2.427480916030534	0.015267175572519083	0.9007633587786259	-45.6	158.4	-188.4
2017-08-17 14:02:49.852787	lat	lng	0.006591796875	1.01318359375	-0.0283203125	2.6412213740458017	0.04580152671755725	0.8854961832061069	-45.6	158.4	-188.4
2017-08-17 14:02:49.871072	lat	lng	0.00244140625	1.01708984375	0.003662109375	2.4732824427480917	-0.07633587786259542	0.7480916030534351	-45.6	158.4	-188.4
2017-08-17 14:02:49.887978	lat	lng	-0.000732421875	1.01953125	0.000732421875	2.5801526717557253	0.0	0.8549618320610687	-45.6	158.4	-188.4
2017-08-17 14:02:49.906601	lat	lng	0.000244140625	1.015625	-0.000732421875	2.427480916030534	-0.33587786259541985	1.0381679389312977	-45.6	158.4	-188.4
2017-08-17 14:02:49.923452	lat	lng	0.001220703125	1.018310546875	-0.00634765625	2.3053435114503817	0.04580152671755725	1.3435114503816794	-45.6	158.4	-188.4
2017-08-17 14:02:49.941498	lat	lng	0.01171875	1.017578125	-0.00830078125	2.6717557251908395	0.030534351145038167	1.2213740458015268	-45.6	158.4	-188.4
2017-08-17 14:02:49.958174	lat	lng	0.00732421875	1.0224609375	-0.00244140625	2.351145038167939	0.13740458015267176	0.6564885496183206	-45.6	158.4	-188.4
2017-08-17 14:02:49.975756	lat	lng	0.001953125	1.01611328125	0.008544921875	2.2595419847328246	0.16793893129770993	0.5648854961832062	-45.6	158.4	-188.4
2017-08-17 14:02:49.992606	lat	lng	0.008544921875	1.01513671875	0.015380859375	2.3969465648854964	0.21374045801526717	1.4198473282442747	-45.6	158.4	-188.4
2017-08-17 14:02:50.011161	lat	lng	0.013671875	1.0146484375	-0.001220703125	2.5801526717557253	-0.07633587786259542	1.4809160305343512	-45.6	158.4	-188.4
2017-08-17 14:02:50.028983	lat	lng	0.012451171875	1.017578125	0.0009765625	2.7480916030534353	-0.4732824427480916	0.4580152671755725	-45.6	158.4	-188.4
2017-08-17 14:02:50.048681	lat	lng	0.000732421875	1.014404296875	-0.001708984375	2.198473282442748	-0.0916030534351145	-0.1984732824427481	-45.6	158.4	-188.4
2017-08-17 14:02:50.067157	lat	lng	-0.00048828125	1.01123046875	-0.004150390625	2.2748091603053435	-3.8931297709923665	-0.07633587786259542	-45.6	158.4	-188.4
2017-08-17 14:02:50.085805	lat	lng	-0.000244140625	1.01318359375	0.000244140625	2.198473282442748	0.15267175572519084	0.8702290076335878	-45.6	158.4	-188.4
2017-08-17 14:02:50.102536	lat	lng	0.00341796875	1.015869140625	0.009033203125	2.4732824427480917	0.030534351145038167	1.8625954198473282	-45.6	158.4	-188.4
2017-08-17 14:02:50.120664	lat	lng	0.014404296875	1.013916015625	0.005859375	2.4885496183206106	0.0916030534351145	2.519083969465649	-45.6	158.4	-188.4
2017-08-17 14:02:50.142591	lat	lng	0.0185546875	1.0185546875	-0.003662109375	2.6259541984732824	-0.13740458015267176	1.5419847328244274	-45.6	158.4	-188.4
2017-08-17 14:02:50.160131	lat	lng	0.009521484375	1.021728515625	-0.01123046875	2.198473282442748	0.07633587786259542	-0.183206106870229	-45.6	158.4	-188.4
2017-08-17 14:02:50.177216	lat	lng	-0.001953125	1.0166015625	0.001953125	2.045801526717557	-0.24427480916030533	-0.8396946564885496	-45.6	158.4	-188.4
2017-08-17 14:02:50.195113	lat	lng	-0.004638671875	1.01513671875	0.000244140625	2.3969465648854964	0.1984732824427481	-0.4580152671755725	-45.6	158.4	-188.4
